subjInfo	name	age	taskver	subjID	trial	rt	leftP	leftCard	key	block	rightP	rightCard	choice	pts	ses_id	abstrial	choiceCard	choiceType	choseRed	blocknum	firstGood	choseFirst
{name:Finn2,age:39}	Finn2	39	NA	debugoEzQM	1	721.369999999297	0.8	D	37	p28	0.2	F	0.8	500	debugoEzQM_39_Finn2	2	D	1	0	1	D	1
{name:Finn2,age:39}	Finn2	39	NA	debugoEzQM	2	426.09999999695	0.2	F	39	p28	0.8	D	0.8	500	debugoEzQM_39_Finn2	4	D	1	0	1	D	1
{name:Finn2,age:39}	Finn2	39	NA	debugoEzQM	3	375.895000004675	0.2	F	39	p28	0.8	D	0.8	0	debugoEzQM_39_Finn2	6	D	1	0	1	D	1
{name:Finn2,age:39}	Finn2	39	NA	debugoEzQM	4	366.140000005544	0.8	D	37	p28	0.2	F	0.8	500	debugoEzQM_39_Finn2	8	D	1	0	1	D	1
{name:Finn2,age:39}	Finn2	39	NA	debugoEzQM	5	436.735000002955	0.2	F	39	p28	0.8	D	0.8	500	debugoEzQM_39_Finn2	10	D	1	0	1	D	1
{name:Finn2,age:39}	Finn2	39	NA	debugoEzQM	6	395.680000001448	0.2	F	39	p28	0.8	D	0.8	500	debugoEzQM_39_Finn2	12	D	1	0	1	D	1
{name:Finn2,age:39}	Finn2	39	NA	debugoEzQM	7	472.074999997858	0.8	D	37	p28	0.2	F	0.8	500	debugoEzQM_39_Finn2	14	D	1	0	1	D	1
{name:Finn2,age:39}	Finn2	39	NA	debugoEzQM	8	364.345000001776	0.8	D	39	p28	1	R	1	500	debugoEzQM_39_Finn2	16	R	2	1	1	D	0
{name:Finn2,age:39}	Finn2	39	NA	debugoEzQM	9	520.175000005111	0.2	F	39	p28	0.8	D	0.8	0	debugoEzQM_39_Finn2	18	D	1	0	1	D	1
{name:Finn2,age:39}	Finn2	39	NA	debugoEzQM	10	587.014999997336	0.8	D	37	p28	0.2	F	0.8	500	debugoEzQM_39_Finn2	20	D	1	0	1	D	1
{name:Finn2,age:39}	Finn2	39	NA	debugoEzQM	11	525.525000004563	0.8	D	37	p28	0.2	F	0.8	500	debugoEzQM_39_Finn2	22	D	1	0	1	D	1
{name:Finn2,age:39}	Finn2	39	NA	debugoEzQM	12	429.420000000391	0.8	D	37	p28	0.2	F	0.8	500	debugoEzQM_39_Finn2	24	D	1	0	1	D	1
{name:Finn2,age:39}	Finn2	39	NA	debugoEzQM	13	777.915000006033	1	R	37	p28	0.2	F	1	500	debugoEzQM_39_Finn2	26	R	2	1	1	D	0
{name:Finn2,age:39}	Finn2	39	NA	debugoEzQM	14	594.199999999546	0.2	F	39	p28	0.8	D	0.8	500	debugoEzQM_39_Finn2	28	D	1	0	1	D	1
{name:Finn2,age:39}	Finn2	39	NA	debugoEzQM	15	549.000000006345	0.8	D	37	p28	0.2	F	0.8	500	debugoEzQM_39_Finn2	30	D	1	0	1	D	1
{name:Finn2,age:39}	Finn2	39	NA	debugoEzQM	16	586.969999996654	0.8	D	37	p28	0.2	F	0.8	500	debugoEzQM_39_Finn2	32	D	1	0	1	D	1
{name:Finn2,age:39}	Finn2	39	NA	debugoEzQM	17	532.005000000936	0.2	F	39	p28	0.8	D	0.8	500	debugoEzQM_39_Finn2	34	D	1	0	1	D	1
{name:Finn2,age:39}	Finn2	39	NA	debugoEzQM	18	781.764999999723	1	R	39	p28	0.8	D	0.8	500	debugoEzQM_39_Finn2	36	D	2	0	1	D	1
{name:Finn2,age:39}	Finn2	39	NA	debugoEzQM	19	510.544999997364	0.2	F	39	p28	1	R	1	500	debugoEzQM_39_Finn2	38	R	2	1	1	D	0
{name:Finn2,age:39}	Finn2	39	NA	debugoEzQM	20	589.239999993879	0.2	F	39	p28	0.8	D	0.8	500	debugoEzQM_39_Finn2	40	D	1	0	1	D	1
{name:Finn2,age:39}	Finn2	39	NA	debugoEzQM	21	472.410000002128	0.2	D	37	p82	0.8	F	0.2	0	debugoEzQM_39_Finn2	42	D	1	0	2	D	1
{name:Finn2,age:39}	Finn2	39	NA	debugoEzQM	22	375.95500000316	0.2	D	37	p82	0.8	F	0.2	0	debugoEzQM_39_Finn2	44	D	1	0	2	D	1
{name:Finn2,age:39}	Finn2	39	NA	debugoEzQM	23	637.725000000501	0.8	F	39	p82	0.2	D	0.2	0	debugoEzQM_39_Finn2	46	D	1	0	2	D	1
{name:Finn2,age:39}	Finn2	39	NA	debugoEzQM	24	505.859999997483	0.2	D	39	p82	0.8	F	0.8	0	debugoEzQM_39_Finn2	48	F	1	0	2	D	0
{name:Finn2,age:39}	Finn2	39	NA	debugoEzQM	25	641.13499999803	0.8	F	37	p82	0.2	D	0.8	500	debugoEzQM_39_Finn2	50	F	1	0	2	D	0
{name:Finn2,age:39}	Finn2	39	NA	debugoEzQM	26	474.930000003951	0.8	F	37	p82	0.2	D	0.8	500	debugoEzQM_39_Finn2	52	F	1	0	2	D	0
{name:Finn2,age:39}	Finn2	39	NA	debugoEzQM	27	415.505000004487	0.8	F	37	p82	0.2	D	0.8	500	debugoEzQM_39_Finn2	54	F	1	0	2	D	0
{name:Finn2,age:39}	Finn2	39	NA	debugoEzQM	28	581.680000002962	0.8	F	37	p82	0.2	D	0.8	500	debugoEzQM_39_Finn2	56	F	1	0	2	D	0
{name:Finn2,age:39}	Finn2	39	NA	debugoEzQM	29	561.680000006163	1	R	37	p82	0.2	D	1	500	debugoEzQM_39_Finn2	58	R	2	1	2	D	0
{name:Finn2,age:39}	Finn2	39	NA	debugoEzQM	30	649.795000004815	0.2	D	39	p82	0.8	F	0.8	500	debugoEzQM_39_Finn2	60	F	1	0	2	D	0
{name:Finn2,age:39}	Finn2	39	NA	debugoEzQM	31	378.580000004149	0.8	F	37	p82	0.2	D	0.8	500	debugoEzQM_39_Finn2	62	F	1	0	2	D	0
{name:Finn2,age:39}	Finn2	39	NA	debugoEzQM	32	472.995000003721	0.8	F	37	p82	0.2	D	0.8	0	debugoEzQM_39_Finn2	64	F	1	0	2	D	0
{name:Finn2,age:39}	Finn2	39	NA	debugoEzQM	33	638.764999996056	0.8	F	37	p82	0.2	D	0.8	500	debugoEzQM_39_Finn2	66	F	1	0	2	D	0
{name:Finn2,age:39}	Finn2	39	NA	debugoEzQM	34	519.359999998414	0.2	D	39	p82	0.8	F	0.8	500	debugoEzQM_39_Finn2	68	F	1	0	2	D	0
{name:Finn2,age:39}	Finn2	39	NA	debugoEzQM	35	460.670000000391	0.2	D	39	p82	0.8	F	0.8	500	debugoEzQM_39_Finn2	70	F	1	0	2	D	0
{name:Finn2,age:39}	Finn2	39	NA	debugoEzQM	36	600.765000002866	0.8	F	37	p82	1	R	0.8	500	debugoEzQM_39_Finn2	72	F	2	0	2	D	0
{name:Finn2,age:39}	Finn2	39	NA	debugoEzQM	37	495.54000000353	0.2	D	39	p82	0.8	F	0.8	500	debugoEzQM_39_Finn2	74	F	1	0	2	D	0
{name:Finn2,age:39}	Finn2	39	NA	debugoEzQM	38	397.924999997485	0.2	D	39	p82	1	R	1	500	debugoEzQM_39_Finn2	76	R	2	1	2	D	0
{name:Finn2,age:39}	Finn2	39	NA	debugoEzQM	39	576.825000003737	1	R	37	p82	0.8	F	1	500	debugoEzQM_39_Finn2	78	R	2	1	2	D	0
{name:Finn2,age:39}	Finn2	39	NA	debugoEzQM	40	413.554999999178	0.2	D	39	p82	0.8	F	0.8	500	debugoEzQM_39_Finn2	80	F	1	0	2	D	0
{name:Finn2,age:39}	Finn2	39	NA	debugoEzQM	41	464.789999998175	0.8	D	39	p28	0.2	F	0.2	0	debugoEzQM_39_Finn2	82	F	1	0	3	D	0
{name:Finn2,age:39}	Finn2	39	NA	debugoEzQM	42	426.764999996522	0.8	D	39	p28	0.2	F	0.2	0	debugoEzQM_39_Finn2	84	F	1	0	3	D	0
{name:Finn2,age:39}	Finn2	39	NA	debugoEzQM	43	460.75999999448	0.2	F	37	p28	0.8	D	0.2	0	debugoEzQM_39_Finn2	86	F	1	0	3	D	0
{name:Finn2,age:39}	Finn2	39	NA	debugoEzQM	44	479.75499999302	0.2	F	37	p28	0.8	D	0.2	0	debugoEzQM_39_Finn2	88	F	1	0	3	D	0
{name:Finn2,age:39}	Finn2	39	NA	debugoEzQM	45	403.165000003355	0.8	D	39	p28	0.2	F	0.2	500	debugoEzQM_39_Finn2	90	F	1	0	3	D	0
{name:Finn2,age:39}	Finn2	39	NA	debugoEzQM	46	496.589999995194	0.2	F	37	p28	0.8	D	0.2	0	debugoEzQM_39_Finn2	92	F	1	0	3	D	0
{name:Finn2,age:39}	Finn2	39	NA	debugoEzQM	47	362.659999998868	1	R	39	p28	0.2	F	0.2	0	debugoEzQM_39_Finn2	94	F	2	0	3	D	0
{name:Finn2,age:39}	Finn2	39	NA	debugoEzQM	48	511.450000005425	0.8	D	39	p28	0.2	F	0.2	0	debugoEzQM_39_Finn2	96	F	1	0	3	D	0
{name:Finn2,age:39}	Finn2	39	NA	debugoEzQM	49	526.610000000801	1	R	37	p28	0.8	D	1	500	debugoEzQM_39_Finn2	98	R	2	1	3	D	0
{name:Finn2,age:39}	Finn2	39	NA	debugoEzQM	50	499.889999999141	0.2	F	39	p28	0.8	D	0.8	500	debugoEzQM_39_Finn2	100	D	1	0	3	D	1
{name:Finn2,age:39}	Finn2	39	NA	debugoEzQM	51	514.100000000326	0.2	F	39	p28	1	R	1	500	debugoEzQM_39_Finn2	102	R	2	1	3	D	0
{name:Finn2,age:39}	Finn2	39	NA	debugoEzQM	52	426.095000002533	0.8	D	39	p28	1	R	1	500	debugoEzQM_39_Finn2	104	R	2	1	3	D	0
{name:Finn2,age:39}	Finn2	39	NA	debugoEzQM	53	493.630000004487	0.2	F	39	p28	0.8	D	0.8	500	debugoEzQM_39_Finn2	106	D	1	0	3	D	1
{name:Finn2,age:39}	Finn2	39	NA	debugoEzQM	54	408.035000000382	0.8	D	37	p28	0.2	F	0.8	500	debugoEzQM_39_Finn2	108	D	1	0	3	D	1
{name:Finn2,age:39}	Finn2	39	NA	debugoEzQM	55	434.529999998631	0.2	F	39	p28	0.8	D	0.8	500	debugoEzQM_39_Finn2	110	D	1	0	3	D	1
{name:Finn2,age:39}	Finn2	39	NA	debugoEzQM	56	576.41500000318	0.8	D	37	p28	0.2	F	0.8	500	debugoEzQM_39_Finn2	112	D	1	0	3	D	1
{name:Finn2,age:39}	Finn2	39	NA	debugoEzQM	57	405.135000000882	0.8	D	37	p28	0.2	F	0.8	0	debugoEzQM_39_Finn2	114	D	1	0	3	D	1
{name:Finn2,age:39}	Finn2	39	NA	debugoEzQM	58	438.474999995378	0.2	F	39	p28	0.8	D	0.8	0	debugoEzQM_39_Finn2	116	D	1	0	3	D	1
{name:Finn2,age:39}	Finn2	39	NA	debugoEzQM	59	385.269999998854	0.8	D	39	p28	0.2	F	0.2	0	debugoEzQM_39_Finn2	118	F	1	0	3	D	0
{name:Finn2,age:39}	Finn2	39	NA	debugoEzQM	60	468.17999999621	0.2	F	37	p28	0.8	D	0.2	0	debugoEzQM_39_Finn2	120	F	1	0	3	D	0
{name:Finn2,age:39}	Finn2	39	NA	debugoEzQM	61	466.030000003229	1	R	37	p82	0.2	D	1	500	debugoEzQM_39_Finn2	122	R	2	1	4	D	0
{name:Finn2,age:39}	Finn2	39	NA	debugoEzQM	62	411.01499999786	0.2	D	37	p82	0.8	F	0.2	0	debugoEzQM_39_Finn2	124	D	1	0	4	D	1
{name:Finn2,age:39}	Finn2	39	NA	debugoEzQM	63	322.100000004866	0.2	D	39	p82	0.8	F	0.8	0	debugoEzQM_39_Finn2	126	F	1	0	4	D	0
{name:Finn2,age:39}	Finn2	39	NA	debugoEzQM	64	285.5750000017	0.2	D	39	p82	1	R	1	500	debugoEzQM_39_Finn2	128	R	2	1	4	D	0
{name:Finn2,age:39}	Finn2	39	NA	debugoEzQM	65	340.474999997241	0.2	D	39	p82	0.8	F	0.8	0	debugoEzQM_39_Finn2	130	F	1	0	4	D	0
{name:Finn2,age:39}	Finn2	39	NA	debugoEzQM	66	547.709999998915	1	R	37	p82	0.8	F	1	500	debugoEzQM_39_Finn2	132	R	2	1	4	D	0
{name:Finn2,age:39}	Finn2	39	NA	debugoEzQM	67	536.885000001348	0.8	F	39	p82	1	R	1	500	debugoEzQM_39_Finn2	134	R	2	1	4	D	0
{name:Finn2,age:39}	Finn2	39	NA	debugoEzQM	68	406.45499999664	0.2	D	37	p82	0.8	F	0.2	0	debugoEzQM_39_Finn2	136	D	1	0	4	D	1
{name:Finn2,age:39}	Finn2	39	NA	debugoEzQM	69	510.974999997416	0.2	D	37	p82	0.8	F	0.2	500	debugoEzQM_39_Finn2	138	D	1	0	4	D	1
{name:Finn2,age:39}	Finn2	39	NA	debugoEzQM	70	405.90499999962	0.8	F	39	p82	0.2	D	0.2	0	debugoEzQM_39_Finn2	140	D	1	0	4	D	1
{name:Finn2,age:39}	Finn2	39	NA	debugoEzQM	71	442.049999997835	0.8	F	39	p82	0.2	D	0.2	0	debugoEzQM_39_Finn2	142	D	1	0	4	D	1
{name:Finn2,age:39}	Finn2	39	NA	debugoEzQM	72	366.089999995893	0.8	F	37	p82	0.2	D	0.8	500	debugoEzQM_39_Finn2	144	F	1	0	4	D	0
{name:Finn2,age:39}	Finn2	39	NA	debugoEzQM	73	389.880000002449	0.8	F	37	p82	0.2	D	0.8	500	debugoEzQM_39_Finn2	146	F	1	0	4	D	0
{name:Finn2,age:39}	Finn2	39	NA	debugoEzQM	74	395.360000002256	0.8	F	37	p82	0.2	D	0.8	500	debugoEzQM_39_Finn2	148	F	1	0	4	D	0
{name:Finn2,age:39}	Finn2	39	NA	debugoEzQM	75	455.620000000636	0.2	D	39	p82	0.8	F	0.8	500	debugoEzQM_39_Finn2	150	F	1	0	4	D	0
{name:Finn2,age:39}	Finn2	39	NA	debugoEzQM	76	396.554999999353	0.8	F	37	p82	0.2	D	0.8	0	debugoEzQM_39_Finn2	152	F	1	0	4	D	0
{name:Finn2,age:39}	Finn2	39	NA	debugoEzQM	77	391.689999996743	0.2	D	37	p82	0.8	F	0.2	0	debugoEzQM_39_Finn2	154	D	1	0	4	D	1
{name:Finn2,age:39}	Finn2	39	NA	debugoEzQM	78	525.354999997944	0.8	F	37	p82	0.2	D	0.8	500	debugoEzQM_39_Finn2	156	F	1	0	4	D	0
{name:Finn2,age:39}	Finn2	39	NA	debugoEzQM	79	496.240000000398	0.8	F	37	p82	0.2	D	0.8	500	debugoEzQM_39_Finn2	158	F	1	0	4	D	0
{name:Finn2,age:39}	Finn2	39	NA	debugoEzQM	80	398.274999999558	0.2	D	39	p82	0.8	F	0.8	0	debugoEzQM_39_Finn2	160	F	1	0	4	D	0
{name:Finn2,age:39}	Finn2	39	NA	debugoEzQM	81	426.979999996547	1	D	37	p11	1	F	1	500	debugoEzQM_39_Finn2	162	D	1	0	5	D	1
{name:Finn2,age:39}	Finn2	39	NA	debugoEzQM	82	384.969999999157	1	D	37	p11	1	F	1	500	debugoEzQM_39_Finn2	164	D	1	0	5	D	1
{name:Finn2,age:39}	Finn2	39	NA	debugoEzQM	83	444.860000003246	1	D	37	p11	1	F	1	500	debugoEzQM_39_Finn2	166	D	1	0	5	D	1
{name:Finn2,age:39}	Finn2	39	NA	debugoEzQM	84	391.515000002983	1	F	39	p11	1	D	1	500	debugoEzQM_39_Finn2	168	D	1	0	5	D	1
{name:Finn2,age:39}	Finn2	39	NA	debugoEzQM	85	375.455000001239	1	F	37	p11	1	D	1	500	debugoEzQM_39_Finn2	170	F	1	0	5	D	0
{name:Finn2,age:39}	Finn2	39	NA	debugoEzQM	86	414.440000000468	1	F	37	p11	1	D	1	500	debugoEzQM_39_Finn2	172	F	1	0	5	D	0
{name:Finn2,age:39}	Finn2	39	NA	debugoEzQM	87	442.374999998719	1	F	37	p11	1	D	1	500	debugoEzQM_39_Finn2	174	F	1	0	5	D	0
{name:Finn2,age:39}	Finn2	39	NA	debugoEzQM	88	408.365000002959	1	F	39	p11	1	D	1	500	debugoEzQM_39_Finn2	176	D	1	0	5	D	1
{name:Finn2,age:39}	Finn2	39	NA	debugoEzQM	89	406.889999998384	1	D	39	p11	1	F	1	500	debugoEzQM_39_Finn2	178	F	1	0	5	D	0
{name:Finn2,age:39}	Finn2	39	NA	debugoEzQM	90	316.689999999653	1	F	39	p11	1	R	1	500	debugoEzQM_39_Finn2	180	R	2	1	5	D	0
{name:Finn2,age:39}	Finn2	39	NA	debugoEzQM	91	316.699999995762	1	D	37	p11	1	F	1	500	debugoEzQM_39_Finn2	182	D	1	0	5	D	1
{name:Finn2,age:39}	Finn2	39	NA	debugoEzQM	92	292.99500000343	1	F	37	p11	1	D	1	500	debugoEzQM_39_Finn2	184	F	1	0	5	D	0
{name:Finn2,age:39}	Finn2	39	NA	debugoEzQM	93	307.144999998854	1	D	39	p11	1	R	1	500	debugoEzQM_39_Finn2	186	R	2	1	5	D	0
{name:Finn2,age:39}	Finn2	39	NA	debugoEzQM	94	270.805000000109	1	D	37	p11	1	F	1	500	debugoEzQM_39_Finn2	188	D	1	0	5	D	1
{name:Finn2,age:39}	Finn2	39	NA	debugoEzQM	95	353.334999999788	1	D	39	p11	1	F	1	500	debugoEzQM_39_Finn2	190	F	1	0	5	D	0
{name:Finn2,age:39}	Finn2	39	NA	debugoEzQM	96	438.935000005586	1	F	37	p11	1	D	1	500	debugoEzQM_39_Finn2	192	F	1	0	5	D	0
{name:Finn2,age:39}	Finn2	39	NA	debugoEzQM	97	467.729999996664	1	F	37	p11	1	D	1	500	debugoEzQM_39_Finn2	194	F	1	0	5	D	0
{name:Finn2,age:39}	Finn2	39	NA	debugoEzQM	98	527.399999999034	1	R	37	p11	1	F	1	500	debugoEzQM_39_Finn2	196	R	2	1	5	D	0
{name:Finn2,age:39}	Finn2	39	NA	debugoEzQM	99	384.525000001304	1	R	37	p11	1	D	1	500	debugoEzQM_39_Finn2	198	R	2	1	5	D	0
{name:Finn2,age:39}	Finn2	39	NA	debugoEzQM	100	408.614999993006	1	D	37	p11	1	F	1	500	debugoEzQM_39_Finn2	200	D	1	0	5	D	1
{name:Finn3,age:39}	Finn3	39	NA	debugN3pbh	1	1263.70499999757	0.2	F	37	p28	0.8	D	0.2	0	debugN3pbh_39_Finn3	2	F	1	0	1	D	0
{name:Finn3,age:39}	Finn3	39	NA	debugN3pbh	2	507.394999993267	0.8	D	37	p28	0.2	F	0.8	500	debugN3pbh_39_Finn3	4	D	1	0	1	D	1
{name:Finn3,age:39}	Finn3	39	NA	debugN3pbh	3	422.375000001921	0.8	D	37	p28	0.2	F	0.8	500	debugN3pbh_39_Finn3	6	D	1	0	1	D	1
{name:Finn3,age:39}	Finn3	39	NA	debugN3pbh	4	461.960000000545	0.2	F	39	p28	0.8	D	0.8	500	debugN3pbh_39_Finn3	8	D	1	0	1	D	1
{name:Finn3,age:39}	Finn3	39	NA	debugN3pbh	5	432.134999995469	0.8	D	37	p28	0.2	F	0.8	500	debugN3pbh_39_Finn3	10	D	1	0	1	D	1
{name:Finn3,age:39}	Finn3	39	NA	debugN3pbh	6	505.125000003318	1	R	37	p28	0.8	D	1	500	debugN3pbh_39_Finn3	12	R	2	1	1	D	0
{name:Finn3,age:39}	Finn3	39	NA	debugN3pbh	7	581.669999999576	0.2	F	37	p28	0.8	D	0.2	0	debugN3pbh_39_Finn3	14	F	1	0	1	D	0
{name:Finn3,age:39}	Finn3	39	NA	debugN3pbh	8	586.714999997639	0.8	D	39	p28	0.2	F	0.2	0	debugN3pbh_39_Finn3	16	F	1	0	1	D	0
{name:Finn3,age:39}	Finn3	39	NA	debugN3pbh	9	441.180000001623	0.2	F	39	p28	0.8	D	0.8	500	debugN3pbh_39_Finn3	18	D	1	0	1	D	1
{name:Finn3,age:39}	Finn3	39	NA	debugN3pbh	10	413.764999997511	0.8	D	37	p28	0.2	F	0.8	500	debugN3pbh_39_Finn3	20	D	1	0	1	D	1
{name:Finn3,age:39}	Finn3	39	NA	debugN3pbh	11	613.740000000689	0.8	D	39	p28	1	R	1	500	debugN3pbh_39_Finn3	22	R	2	1	1	D	0
{name:Finn3,age:39}	Finn3	39	NA	debugN3pbh	12	482.645000003686	1	R	37	p28	0.2	F	1	500	debugN3pbh_39_Finn3	24	R	2	1	1	D	0
{name:Finn3,age:39}	Finn3	39	NA	debugN3pbh	13	891.019999995478	0.2	F	39	p28	0.8	D	0.8	500	debugN3pbh_39_Finn3	26	D	1	0	1	D	1
{name:Finn3,age:39}	Finn3	39	NA	debugN3pbh	14	524.765000001935	0.8	D	37	p28	0.2	F	0.8	0	debugN3pbh_39_Finn3	28	D	1	0	1	D	1
{name:Finn3,age:39}	Finn3	39	NA	debugN3pbh	15	516.425000001618	0.2	F	39	p28	0.8	D	0.8	500	debugN3pbh_39_Finn3	30	D	1	0	1	D	1
{name:Finn3,age:39}	Finn3	39	NA	debugN3pbh	16	423.255000001518	0.8	D	37	p28	0.2	F	0.8	500	debugN3pbh_39_Finn3	32	D	1	0	1	D	1
{name:Finn3,age:39}	Finn3	39	NA	debugN3pbh	17	766.609999998764	0.2	F	39	p28	1	R	1	500	debugN3pbh_39_Finn3	34	R	2	1	1	D	0
{name:Finn3,age:39}	Finn3	39	NA	debugN3pbh	18	478.890000005777	0.2	F	39	p28	0.8	D	0.8	500	debugN3pbh_39_Finn3	36	D	1	0	1	D	1
{name:Finn3,age:39}	Finn3	39	NA	debugN3pbh	19	567.129999995814	0.8	D	37	p28	0.2	F	0.8	500	debugN3pbh_39_Finn3	38	D	1	0	1	D	1
{name:Finn3,age:39}	Finn3	39	NA	debugN3pbh	20	600.494999998773	0.2	F	39	p28	0.8	D	0.8	500	debugN3pbh_39_Finn3	40	D	1	0	1	D	1
{name:Finn3,age:39}	Finn3	39	NA	debugN3pbh	21	871.015000004263	0.8	F	39	p82	0.2	D	0.2	0	debugN3pbh_39_Finn3	42	D	1	0	2	D	1
{name:Finn3,age:39}	Finn3	39	NA	debugN3pbh	22	436.069999996107	0.2	D	37	p82	0.8	F	0.2	0	debugN3pbh_39_Finn3	44	D	1	0	2	D	1
{name:Finn3,age:39}	Finn3	39	NA	debugN3pbh	23	1555.17500000133	1	R	39	p82	0.2	D	0.2	0	debugN3pbh_39_Finn3	46	D	2	0	2	D	1
{name:Finn3,age:39}	Finn3	39	NA	debugN3pbh	24	644.894999997632	0.2	D	37	p82	0.8	F	0.2	0	debugN3pbh_39_Finn3	48	D	1	0	2	D	1
{name:Finn3,age:39}	Finn3	39	NA	debugN3pbh	25	732.605000004696	0.2	D	39	p82	0.8	F	0.8	0	debugN3pbh_39_Finn3	50	F	1	0	2	D	0
{name:Finn3,age:39}	Finn3	39	NA	debugN3pbh	26	670.870000001742	0.8	F	37	p82	0.2	D	0.8	500	debugN3pbh_39_Finn3	52	F	1	0	2	D	0
{name:Finn3,age:39}	Finn3	39	NA	debugN3pbh	27	570.729999999458	0.2	D	39	p82	0.8	F	0.8	500	debugN3pbh_39_Finn3	54	F	1	0	2	D	0
{name:Finn3,age:39}	Finn3	39	NA	debugN3pbh	28	639.239999996789	0.8	F	37	p82	0.2	D	0.8	500	debugN3pbh_39_Finn3	56	F	1	0	2	D	0
{name:Finn3,age:39}	Finn3	39	NA	debugN3pbh	29	1279.00499999669	0.8	F	39	p82	1	R	1	500	debugN3pbh_39_Finn3	58	R	2	1	2	D	0
{name:Finn3,age:39}	Finn3	39	NA	debugN3pbh	30	595.990000001621	0.2	D	39	p82	1	R	1	500	debugN3pbh_39_Finn3	60	R	2	1	2	D	0
{name:Finn3,age:39}	Finn3	39	NA	debugN3pbh	31	869.975000001432	0.2	D	39	p82	0.8	F	0.8	0	debugN3pbh_39_Finn3	62	F	1	0	2	D	0
{name:Finn3,age:39}	Finn3	39	NA	debugN3pbh	32	524.805000000924	0.8	F	37	p82	0.2	D	0.8	500	debugN3pbh_39_Finn3	64	F	1	0	2	D	0
{name:Finn3,age:39}	Finn3	39	NA	debugN3pbh	33	472.609999997076	0.8	F	37	p82	0.2	D	0.8	0	debugN3pbh_39_Finn3	66	F	1	0	2	D	0
{name:Finn3,age:39}	Finn3	39	NA	debugN3pbh	34	782.890000002226	0.2	D	39	p82	0.8	F	0.8	500	debugN3pbh_39_Finn3	68	F	1	0	2	D	0
{name:Finn3,age:39}	Finn3	39	NA	debugN3pbh	35	548.165000000154	1	R	37	p82	0.8	F	1	500	debugN3pbh_39_Finn3	70	R	2	1	2	D	0
{name:Finn3,age:39}	Finn3	39	NA	debugN3pbh	36	561.500000003434	0.8	F	37	p82	0.2	D	0.8	500	debugN3pbh_39_Finn3	72	F	1	0	2	D	0
{name:Finn3,age:39}	Finn3	39	NA	debugN3pbh	37	696.410000004107	0.2	D	39	p82	0.8	F	0.8	500	debugN3pbh_39_Finn3	74	F	1	0	2	D	0
{name:Finn3,age:39}	Finn3	39	NA	debugN3pbh	38	608.924999993178	0.8	F	37	p82	0.2	D	0.8	500	debugN3pbh_39_Finn3	76	F	1	0	2	D	0
{name:Finn3,age:39}	Finn3	39	NA	debugN3pbh	39	623.134999994363	0.2	D	39	p82	0.8	F	0.8	500	debugN3pbh_39_Finn3	78	F	1	0	2	D	0
{name:Finn3,age:39}	Finn3	39	NA	debugN3pbh	40	665.425000006508	0.8	F	37	p82	0.2	D	0.8	500	debugN3pbh_39_Finn3	80	F	1	0	2	D	0
{name:Finn3,age:39}	Finn3	39	NA	debugN3pbh	41	567.170000002079	0.8	D	39	p28	0.2	F	0.2	0	debugN3pbh_39_Finn3	82	F	1	0	3	D	0
{name:Finn3,age:39}	Finn3	39	NA	debugN3pbh	42	601.555000001099	0.2	F	37	p28	0.8	D	0.2	0	debugN3pbh_39_Finn3	84	F	1	0	3	D	0
{name:Finn3,age:39}	Finn3	39	NA	debugN3pbh	43	557.309999996505	0.2	F	39	p28	1	R	1	500	debugN3pbh_39_Finn3	86	R	2	1	3	D	0
{name:Finn3,age:39}	Finn3	39	NA	debugN3pbh	44	393.069999998261	1	R	39	p28	0.8	D	0.8	500	debugN3pbh_39_Finn3	88	D	2	0	3	D	1
{name:Finn3,age:39}	Finn3	39	NA	debugN3pbh	45	1115.41500000021	0.8	D	37	p28	0.2	F	0.8	500	debugN3pbh_39_Finn3	90	D	1	0	3	D	1
{name:Finn3,age:39}	Finn3	39	NA	debugN3pbh	46	721.140000001469	0.2	F	39	p28	0.8	D	0.8	500	debugN3pbh_39_Finn3	92	D	1	0	3	D	1
{name:Finn3,age:39}	Finn3	39	NA	debugN3pbh	47	701.754999994591	0.8	D	37	p28	0.2	F	0.8	500	debugN3pbh_39_Finn3	94	D	1	0	3	D	1
{name:Finn3,age:39}	Finn3	39	NA	debugN3pbh	48	600.485000002664	1	R	37	p28	0.2	F	1	500	debugN3pbh_39_Finn3	96	R	2	1	3	D	0
{name:Finn3,age:39}	Finn3	39	NA	debugN3pbh	49	438.225000005332	0.8	D	37	p28	0.2	F	0.8	500	debugN3pbh_39_Finn3	98	D	1	0	3	D	1
{name:Finn3,age:39}	Finn3	39	NA	debugN3pbh	50	500.480000002426	0.2	F	39	p28	0.8	D	0.8	500	debugN3pbh_39_Finn3	100	D	1	0	3	D	1
{name:Finn3,age:39}	Finn3	39	NA	debugN3pbh	51	574.844999995548	0.2	F	39	p28	0.8	D	0.8	500	debugN3pbh_39_Finn3	102	D	1	0	3	D	1
{name:Finn3,age:39}	Finn3	39	NA	debugN3pbh	52	549.839999999676	0.8	D	37	p28	0.2	F	0.8	0	debugN3pbh_39_Finn3	104	D	1	0	3	D	1
{name:Finn3,age:39}	Finn3	39	NA	debugN3pbh	53	587.469999998575	0.8	D	39	p28	1	R	1	500	debugN3pbh_39_Finn3	106	R	2	1	3	D	0
{name:Finn3,age:39}	Finn3	39	NA	debugN3pbh	54	470.909999996366	0.2	F	39	p28	0.8	D	0.8	0	debugN3pbh_39_Finn3	108	D	1	0	3	D	1
{name:Finn3,age:39}	Finn3	39	NA	debugN3pbh	55	638.909999994212	0.8	D	37	p28	0.2	F	0.8	500	debugN3pbh_39_Finn3	110	D	1	0	3	D	1
{name:Finn3,age:39}	Finn3	39	NA	debugN3pbh	56	463.320000002568	0.2	F	39	p28	0.8	D	0.8	500	debugN3pbh_39_Finn3	112	D	1	0	3	D	1
{name:Finn3,age:39}	Finn3	39	NA	debugN3pbh	57	507.505000001402	0.2	F	39	p28	0.8	D	0.8	500	debugN3pbh_39_Finn3	114	D	1	0	3	D	1
{name:Finn3,age:39}	Finn3	39	NA	debugN3pbh	58	596.765000002051	0.2	F	39	p28	0.8	D	0.8	500	debugN3pbh_39_Finn3	116	D	1	0	3	D	1
{name:Finn3,age:39}	Finn3	39	NA	debugN3pbh	59	432.950000002165	0.8	D	39	p28	0.2	F	0.2	0	debugN3pbh_39_Finn3	118	F	1	0	3	D	0
{name:Finn3,age:39}	Finn3	39	NA	debugN3pbh	60	424.42999999912	0.8	D	37	p28	0.2	F	0.8	500	debugN3pbh_39_Finn3	120	D	1	0	3	D	1
{name:Finn3,age:39}	Finn3	39	NA	debugN3pbh	61	447.960000004969	0.2	D	37	p82	0.8	F	0.2	0	debugN3pbh_39_Finn3	122	D	1	0	4	D	1
{name:Finn3,age:39}	Finn3	39	NA	debugN3pbh	62	602.899999998044	0.2	D	37	p82	0.8	F	0.2	500	debugN3pbh_39_Finn3	124	D	1	0	4	D	1
{name:Finn3,age:39}	Finn3	39	NA	debugN3pbh	63	425.815000002331	0.8	F	39	p82	0.2	D	0.2	500	debugN3pbh_39_Finn3	126	D	1	0	4	D	1
{name:Finn3,age:39}	Finn3	39	NA	debugN3pbh	64	472.77000000031	0.8	F	39	p82	0.2	D	0.2	500	debugN3pbh_39_Finn3	128	D	1	0	4	D	1
{name:Finn3,age:39}	Finn3	39	NA	debugN3pbh	65	513.630000001285	0.8	F	39	p82	0.2	D	0.2	0	debugN3pbh_39_Finn3	130	D	1	0	4	D	1
{name:Finn3,age:39}	Finn3	39	NA	debugN3pbh	66	698.694999999134	0.2	D	37	p82	0.8	F	0.2	0	debugN3pbh_39_Finn3	132	D	1	0	4	D	1
{name:Finn3,age:39}	Finn3	39	NA	debugN3pbh	67	791.219999999157	0.8	F	39	p82	0.2	D	0.2	0	debugN3pbh_39_Finn3	134	D	1	0	4	D	1
{name:Finn3,age:39}	Finn3	39	NA	debugN3pbh	68	577.699999994365	0.8	F	39	p82	1	R	1	500	debugN3pbh_39_Finn3	136	R	2	1	4	D	0
{name:Finn3,age:39}	Finn3	39	NA	debugN3pbh	69	425.27500000142	0.8	F	37	p82	0.2	D	0.8	500	debugN3pbh_39_Finn3	138	F	1	0	4	D	0
{name:Finn3,age:39}	Finn3	39	NA	debugN3pbh	70	476.495000002615	0.2	D	39	p82	0.8	F	0.8	500	debugN3pbh_39_Finn3	140	F	1	0	4	D	0
{name:Finn3,age:39}	Finn3	39	NA	debugN3pbh	71	594.559999997728	0.2	D	39	p82	0.8	F	0.8	500	debugN3pbh_39_Finn3	142	F	1	0	4	D	0
{name:Finn3,age:39}	Finn3	39	NA	debugN3pbh	72	550.100000000384	1	R	37	p82	0.8	F	1	500	debugN3pbh_39_Finn3	144	R	2	1	4	D	0
{name:Finn3,age:39}	Finn3	39	NA	debugN3pbh	73	579.5500000022	1	R	37	p82	0.2	D	1	500	debugN3pbh_39_Finn3	146	R	2	1	4	D	0
{name:Finn3,age:39}	Finn3	39	NA	debugN3pbh	74	418.98499999661	0.2	D	39	p82	0.8	F	0.8	500	debugN3pbh_39_Finn3	148	F	1	0	4	D	0
{name:Finn3,age:39}	Finn3	39	NA	debugN3pbh	75	506.540000002133	0.2	D	39	p82	0.8	F	0.8	500	debugN3pbh_39_Finn3	150	F	1	0	4	D	0
{name:Finn3,age:39}	Finn3	39	NA	debugN3pbh	76	485.325000001467	0.2	D	39	p82	1	R	1	500	debugN3pbh_39_Finn3	152	R	2	1	4	D	0
{name:Finn3,age:39}	Finn3	39	NA	debugN3pbh	77	534.895000004326	0.8	F	39	p82	0.2	D	0.2	0	debugN3pbh_39_Finn3	154	D	1	0	4	D	1
{name:Finn3,age:39}	Finn3	39	NA	debugN3pbh	78	551.920000005339	0.8	F	37	p82	0.2	D	0.8	0	debugN3pbh_39_Finn3	156	F	1	0	4	D	0
{name:Finn3,age:39}	Finn3	39	NA	debugN3pbh	79	846.199999999953	0.2	D	39	p82	0.8	F	0.8	500	debugN3pbh_39_Finn3	158	F	1	0	4	D	0
{name:Finn3,age:39}	Finn3	39	NA	debugN3pbh	80	447.509999998147	0.8	F	37	p82	0.2	D	0.8	500	debugN3pbh_39_Finn3	160	F	1	0	4	D	0
{name:Finn3,age:39}	Finn3	39	NA	debugN3pbh	81	509.825000001001	1	F	37	p11	1	D	1	500	debugN3pbh_39_Finn3	162	F	1	0	5	D	0
{name:Finn3,age:39}	Finn3	39	NA	debugN3pbh	82	552.945000003092	1	F	37	p11	1	D	1	500	debugN3pbh_39_Finn3	164	F	1	0	5	D	0
{name:Finn3,age:39}	Finn3	39	NA	debugN3pbh	83	568.624999999884	1	D	39	p11	1	F	1	500	debugN3pbh_39_Finn3	166	F	1	0	5	D	0
{name:Finn3,age:39}	Finn3	39	NA	debugN3pbh	84	667.07999999926	1	F	37	p11	1	D	1	500	debugN3pbh_39_Finn3	168	F	1	0	5	D	0
{name:Finn3,age:39}	Finn3	39	NA	debugN3pbh	85	968.054999997548	1	F	37	p11	1	D	1	500	debugN3pbh_39_Finn3	170	F	1	0	5	D	0
{name:Finn3,age:39}	Finn3	39	NA	debugN3pbh	86	977.630000001227	1	D	39	p11	1	F	1	500	debugN3pbh_39_Finn3	172	F	1	0	5	D	0
{name:Finn3,age:39}	Finn3	39	NA	debugN3pbh	87	720.609999996668	1	F	39	p11	1	R	1	500	debugN3pbh_39_Finn3	174	R	2	1	5	D	0
{name:Finn3,age:39}	Finn3	39	NA	debugN3pbh	88	465.824999999313	1	F	37	p11	1	D	1	500	debugN3pbh_39_Finn3	176	F	1	0	5	D	0
{name:Finn3,age:39}	Finn3	39	NA	debugN3pbh	89	524.290000001201	1	R	37	p11	1	D	1	500	debugN3pbh_39_Finn3	178	R	2	1	5	D	0
{name:Finn3,age:39}	Finn3	39	NA	debugN3pbh	90	383.345000002009	1	D	39	p11	1	F	1	500	debugN3pbh_39_Finn3	180	F	1	0	5	D	0
{name:Finn3,age:39}	Finn3	39	NA	debugN3pbh	91	446.595000001253	1	D	39	p11	1	F	1	500	debugN3pbh_39_Finn3	182	F	1	0	5	D	0
{name:Finn3,age:39}	Finn3	39	NA	debugN3pbh	92	434.869999997318	1	F	37	p11	1	D	1	500	debugN3pbh_39_Finn3	184	F	1	0	5	D	0
{name:Finn3,age:39}	Finn3	39	NA	debugN3pbh	93	442.56999999925	1	F	37	p11	1	D	1	500	debugN3pbh_39_Finn3	186	F	1	0	5	D	0
{name:Finn3,age:39}	Finn3	39	NA	debugN3pbh	94	441.409999999451	1	D	39	p11	1	F	1	500	debugN3pbh_39_Finn3	188	F	1	0	5	D	0
{name:Finn3,age:39}	Finn3	39	NA	debugN3pbh	95	385.68999999552	1	D	39	p11	1	F	1	500	debugN3pbh_39_Finn3	190	F	1	0	5	D	0
{name:Finn3,age:39}	Finn3	39	NA	debugN3pbh	96	423.380000000179	1	F	37	p11	1	D	1	500	debugN3pbh_39_Finn3	192	F	1	0	5	D	0
{name:Finn3,age:39}	Finn3	39	NA	debugN3pbh	97	527.734999996028	1	R	37	p11	1	F	1	500	debugN3pbh_39_Finn3	194	R	2	1	5	D	0
{name:Finn3,age:39}	Finn3	39	NA	debugN3pbh	98	583.50999999675	1	D	39	p11	1	R	1	500	debugN3pbh_39_Finn3	196	R	2	1	5	D	0
{name:Finn3,age:39}	Finn3	39	NA	debugN3pbh	99	470.41999999783	1	D	39	p11	1	F	1	500	debugN3pbh_39_Finn3	198	F	1	0	5	D	0
{name:Finn3,age:39}	Finn3	39	NA	debugN3pbh	100	499.340000002121	1	D	39	p11	1	F	1	500	debugN3pbh_39_Finn3	200	F	1	0	5	D	0
{name:Finn4,age:39,taskver:20200410.2-blk40+inst}	Finn4	39	20200410.2-blk40+inst	debugPzYC4	1	798.964999994496	0.8	D	37	p28	0.2	F	0.8	500	debugPzYC4_39_Finn4	2	D	1	0	1	D	1
{name:Finn4,age:39,taskver:20200410.2-blk40+inst}	Finn4	39	20200410.2-blk40+inst	debugPzYC4	2	538.270000004559	0.2	F	39	p28	0.8	D	0.8	500	debugPzYC4_39_Finn4	4	D	1	0	1	D	1
{name:Finn4,age:39,taskver:20200410.2-blk40+inst}	Finn4	39	20200410.2-blk40+inst	debugPzYC4	3	470.780000003288	0.2	F	39	p28	0.8	D	0.8	500	debugPzYC4_39_Finn4	6	D	1	0	1	D	1
{name:Finn4,age:39,taskver:20200410.2-blk40+inst}	Finn4	39	20200410.2-blk40+inst	debugPzYC4	4	433.334999994258	0.2	F	39	p28	0.8	D	0.8	500	debugPzYC4_39_Finn4	8	D	1	0	1	D	1
{name:Finn4,age:39,taskver:20200410.2-blk40+inst}	Finn4	39	20200410.2-blk40+inst	debugPzYC4	5	495.519999996759	0.8	D	37	p28	1	R	0.8	500	debugPzYC4_39_Finn4	10	D	2	0	1	D	1
{name:Finn4,age:39,taskver:20200410.2-blk40+inst}	Finn4	39	20200410.2-blk40+inst	debugPzYC4	6	549.8399999924	0.2	F	39	p28	1	R	1	500	debugPzYC4_39_Finn4	12	R	2	1	1	D	0
{name:Finn4,age:39,taskver:20200410.2-blk40+inst}	Finn4	39	20200410.2-blk40+inst	debugPzYC4	7	799.940000011702	0.8	D	37	p28	0.2	F	0.8	500	debugPzYC4_39_Finn4	14	D	1	0	1	D	1
{name:Finn4,age:39,taskver:20200410.2-blk40+inst}	Finn4	39	20200410.2-blk40+inst	debugPzYC4	8	751.420000000508	0.8	D	37	p28	0.2	F	0.8	500	debugPzYC4_39_Finn4	16	D	1	0	1	D	1
{name:Finn4,age:39,taskver:20200410.2-blk40+inst}	Finn4	39	20200410.2-blk40+inst	debugPzYC4	9	537.609999999404	0.8	D	37	p28	0.2	F	0.8	0	debugPzYC4_39_Finn4	18	D	1	0	1	D	1
{name:Finn4,age:39,taskver:20200410.2-blk40+inst}	Finn4	39	20200410.2-blk40+inst	debugPzYC4	10	541.709999990417	0.8	D	37	p28	0.2	F	0.8	500	debugPzYC4_39_Finn4	20	D	1	0	1	D	1
{name:Finn4,age:39,taskver:20200410.2-blk40+inst}	Finn4	39	20200410.2-blk40+inst	debugPzYC4	11	562.424999996438	0.2	F	39	p28	0.8	D	0.8	500	debugPzYC4_39_Finn4	22	D	1	0	1	D	1
{name:Finn4,age:39,taskver:20200410.2-blk40+inst}	Finn4	39	20200410.2-blk40+inst	debugPzYC4	12	598.35000000021	0.8	D	37	p28	0.2	F	0.8	500	debugPzYC4_39_Finn4	24	D	1	0	1	D	1
{name:Finn4,age:39,taskver:20200410.2-blk40+inst}	Finn4	39	20200410.2-blk40+inst	debugPzYC4	13	495.620000001509	0.2	F	39	p28	0.8	D	0.8	500	debugPzYC4_39_Finn4	26	D	1	0	1	D	1
{name:Finn4,age:39,taskver:20200410.2-blk40+inst}	Finn4	39	20200410.2-blk40+inst	debugPzYC4	14	746.705000012298	0.8	D	37	p28	0.2	F	0.8	500	debugPzYC4_39_Finn4	28	D	1	0	1	D	1
{name:Finn4,age:39,taskver:20200410.2-blk40+inst}	Finn4	39	20200410.2-blk40+inst	debugPzYC4	15	509.35500000196	0.2	F	39	p28	0.8	D	0.8	500	debugPzYC4_39_Finn4	30	D	1	0	1	D	1
{name:Finn4,age:39,taskver:20200410.2-blk40+inst}	Finn4	39	20200410.2-blk40+inst	debugPzYC4	16	472.519999995711	0.2	F	39	p28	0.8	D	0.8	500	debugPzYC4_39_Finn4	32	D	1	0	1	D	1
{name:Finn4,age:39,taskver:20200410.2-blk40+inst}	Finn4	39	20200410.2-blk40+inst	debugPzYC4	17	562.129999991157	1	R	37	p28	0.8	D	1	500	debugPzYC4_39_Finn4	34	R	2	1	1	D	0
{name:Finn4,age:39,taskver:20200410.2-blk40+inst}	Finn4	39	20200410.2-blk40+inst	debugPzYC4	18	651.465000002645	0.8	D	37	p28	0.2	F	0.8	500	debugPzYC4_39_Finn4	36	D	1	0	1	D	1
{name:Finn4,age:39,taskver:20200410.2-blk40+inst}	Finn4	39	20200410.2-blk40+inst	debugPzYC4	19	911.500000001979	0.8	D	37	p28	0.2	F	0.8	500	debugPzYC4_39_Finn4	38	D	1	0	1	D	1
{name:Finn4,age:39,taskver:20200410.2-blk40+inst}	Finn4	39	20200410.2-blk40+inst	debugPzYC4	20	726.760000005015	0.2	F	39	p28	0.8	D	0.8	500	debugPzYC4_39_Finn4	40	D	1	0	1	D	1
{name:Finn4,age:39,taskver:20200410.2-blk40+inst}	Finn4	39	20200410.2-blk40+inst	debugPzYC4	21	771.909999995842	0.8	D	37	p28	0.2	F	0.8	500	debugPzYC4_39_Finn4	42	D	1	0	1	D	1
{name:Finn4,age:39,taskver:20200410.2-blk40+inst}	Finn4	39	20200410.2-blk40+inst	debugPzYC4	22	628.689999997732	0.2	F	39	p28	0.8	D	0.8	500	debugPzYC4_39_Finn4	44	D	1	0	1	D	1
{name:Finn4,age:39,taskver:20200410.2-blk40+inst}	Finn4	39	20200410.2-blk40+inst	debugPzYC4	23	891.099999993457	1	R	37	p28	0.2	F	1	500	debugPzYC4_39_Finn4	46	R	2	1	1	D	0
{name:Finn4,age:39,taskver:20200410.2-blk40+inst}	Finn4	39	20200410.2-blk40+inst	debugPzYC4	24	971.935000008671	0.2	F	39	p28	0.8	D	0.8	500	debugPzYC4_39_Finn4	48	D	1	0	1	D	1
{name:Finn4,age:39,taskver:20200410.2-blk40+inst}	Finn4	39	20200410.2-blk40+inst	debugPzYC4	25	485.335000004852	0.2	F	39	p28	0.8	D	0.8	500	debugPzYC4_39_Finn4	50	D	1	0	1	D	1
{name:Finn4,age:39,taskver:20200410.2-blk40+inst}	Finn4	39	20200410.2-blk40+inst	debugPzYC4	26	518.160000006901	0.8	D	37	p28	0.2	F	0.8	500	debugPzYC4_39_Finn4	52	D	1	0	1	D	1
{name:Finn4,age:39,taskver:20200410.2-blk40+inst}	Finn4	39	20200410.2-blk40+inst	debugPzYC4	27	443.375000002561	0.2	F	39	p28	0.8	D	0.8	500	debugPzYC4_39_Finn4	54	D	1	0	1	D	1
{name:Finn4,age:39,taskver:20200410.2-blk40+inst}	Finn4	39	20200410.2-blk40+inst	debugPzYC4	28	468.13999999722	0.8	D	37	p28	0.2	F	0.8	0	debugPzYC4_39_Finn4	56	D	1	0	1	D	1
{name:Finn4,age:39,taskver:20200410.2-blk40+inst}	Finn4	39	20200410.2-blk40+inst	debugPzYC4	29	462.229999990086	0.2	F	39	p28	0.8	D	0.8	0	debugPzYC4_39_Finn4	58	D	1	0	1	D	1
{name:Finn4,age:39,taskver:20200410.2-blk40+inst}	Finn4	39	20200410.2-blk40+inst	debugPzYC4	30	745.355000006384	1	R	37	p28	0.8	D	1	500	debugPzYC4_39_Finn4	60	R	2	1	1	D	0
{name:Finn4,age:39,taskver:20200410.2-blk40+inst}	Finn4	39	20200410.2-blk40+inst	debugPzYC4	31	624.964999995427	0.2	F	37	p28	0.8	D	0.2	0	debugPzYC4_39_Finn4	62	F	1	0	1	D	0
{name:Finn4,age:39,taskver:20200410.2-blk40+inst}	Finn4	39	20200410.2-blk40+inst	debugPzYC4	32	656.025000003865	1	R	37	p28	0.2	F	1	500	debugPzYC4_39_Finn4	64	R	2	1	1	D	0
{name:Finn4,age:39,taskver:20200410.2-blk40+inst}	Finn4	39	20200410.2-blk40+inst	debugPzYC4	33	596.380000002682	0.8	D	39	p28	1	R	1	500	debugPzYC4_39_Finn4	66	R	2	1	1	D	0
{name:Finn4,age:39,taskver:20200410.2-blk40+inst}	Finn4	39	20200410.2-blk40+inst	debugPzYC4	34	547.470000004978	0.2	F	37	p28	0.8	D	0.2	0	debugPzYC4_39_Finn4	68	F	1	0	1	D	0
{name:Finn4,age:39,taskver:20200410.2-blk40+inst}	Finn4	39	20200410.2-blk40+inst	debugPzYC4	35	868.93000001146	0.2	F	39	p28	0.8	D	0.8	500	debugPzYC4_39_Finn4	70	D	1	0	1	D	1
{name:Finn4,age:39,taskver:20200410.2-blk40+inst}	Finn4	39	20200410.2-blk40+inst	debugPzYC4	36	433.625000005122	0.8	D	37	p28	0.2	F	0.8	500	debugPzYC4_39_Finn4	72	D	1	0	1	D	1
{name:Finn4,age:39,taskver:20200410.2-blk40+inst}	Finn4	39	20200410.2-blk40+inst	debugPzYC4	37	492.899999997462	0.8	D	37	p28	0.2	F	0.8	500	debugPzYC4_39_Finn4	74	D	1	0	1	D	1
{name:Finn4,age:39,taskver:20200410.2-blk40+inst}	Finn4	39	20200410.2-blk40+inst	debugPzYC4	38	483.015000005253	0.8	D	37	p28	0.2	F	0.8	500	debugPzYC4_39_Finn4	76	D	1	0	1	D	1
{name:Finn4,age:39,taskver:20200410.2-blk40+inst}	Finn4	39	20200410.2-blk40+inst	debugPzYC4	39	766.625000003842	0.8	D	37	p28	0.2	F	0.8	500	debugPzYC4_39_Finn4	78	D	1	0	1	D	1
{name:Finn4,age:39,taskver:20200410.2-blk40+inst}	Finn4	39	20200410.2-blk40+inst	debugPzYC4	40	805.084999999963	0.2	F	39	p28	1	R	1	500	debugPzYC4_39_Finn4	80	R	2	1	1	D	0
{name:Finn4,age:39,taskver:20200410.2-blk40+inst}	Finn4	39	20200410.2-blk40+inst	debugPzYC4	41	2108.2150000002	0.8	F	39	p82	0.2	D	0.2	0	debugPzYC4_39_Finn4	82	D	1	0	2	D	1
{name:Finn4,age:39,taskver:20200410.2-blk40+inst}	Finn4	39	20200410.2-blk40+inst	debugPzYC4	42	630.279999997583	0.2	D	37	p82	0.8	F	0.2	0	debugPzYC4_39_Finn4	84	D	1	0	2	D	1
{name:Finn4,age:39,taskver:20200410.2-blk40+inst}	Finn4	39	20200410.2-blk40+inst	debugPzYC4	43	569.06500000332	0.2	D	39	p82	1	R	1	500	debugPzYC4_39_Finn4	86	R	2	1	2	D	0
{name:Finn4,age:39,taskver:20200410.2-blk40+inst}	Finn4	39	20200410.2-blk40+inst	debugPzYC4	44	3514.46999999462	0.2	D	37	p82	0.8	F	0.2	0	debugPzYC4_39_Finn4	88	D	1	0	2	D	1
{name:Finn4,age:39,taskver:20200410.2-blk40+inst}	Finn4	39	20200410.2-blk40+inst	debugPzYC4	45	6376.05499998608	0.2	D	37	p82	0.8	F	0.2	0	debugPzYC4_39_Finn4	90	D	1	0	2	D	1
{name:Finn4,age:39,taskver:20200410.2-blk40+inst}	Finn4	39	20200410.2-blk40+inst	debugPzYC4	46	273.554999992484	0.8	F	39	p82	0.2	D	0.2	0	debugPzYC4_39_Finn4	92	D	1	0	2	D	1
{name:Finn4,age:39,taskver:20200410.2-blk40+inst}	Finn4	39	20200410.2-blk40+inst	debugPzYC4	47	576.710000008461	0.8	F	37	p82	0.2	D	0.8	500	debugPzYC4_39_Finn4	94	F	1	0	2	D	0
{name:Finn4,age:39,taskver:20200410.2-blk40+inst}	Finn4	39	20200410.2-blk40+inst	debugPzYC4	48	449.900000006892	0.8	F	37	p82	0.2	D	0.8	0	debugPzYC4_39_Finn4	96	F	1	0	2	D	0
{name:Finn4,age:39,taskver:20200410.2-blk40+inst}	Finn4	39	20200410.2-blk40+inst	debugPzYC4	49	462.12499999092	0.8	F	37	p82	0.2	D	0.8	500	debugPzYC4_39_Finn4	98	F	1	0	2	D	0
{name:Finn4,age:39,taskver:20200410.2-blk40+inst}	Finn4	39	20200410.2-blk40+inst	debugPzYC4	50	474.960000006831	0.2	D	37	p82	0.8	F	0.2	0	debugPzYC4_39_Finn4	100	D	1	0	2	D	1
{name:Finn4,age:39,taskver:20200410.2-blk40+inst}	Finn4	39	20200410.2-blk40+inst	debugPzYC4	51	617.429999998421	0.8	F	37	p82	0.2	D	0.8	500	debugPzYC4_39_Finn4	102	F	1	0	2	D	0
{name:Finn4,age:39,taskver:20200410.2-blk40+inst}	Finn4	39	20200410.2-blk40+inst	debugPzYC4	52	540.000000008149	0.8	F	37	p82	0.2	D	0.8	500	debugPzYC4_39_Finn4	104	F	1	0	2	D	0
{name:Finn4,age:39,taskver:20200410.2-blk40+inst}	Finn4	39	20200410.2-blk40+inst	debugPzYC4	53	688.800000003539	0.2	D	39	p82	0.8	F	0.8	500	debugPzYC4_39_Finn4	106	F	1	0	2	D	0
{name:Finn4,age:39,taskver:20200410.2-blk40+inst}	Finn4	39	20200410.2-blk40+inst	debugPzYC4	54	1254.27000000491	0.8	F	37	p82	0.2	D	0.8	500	debugPzYC4_39_Finn4	108	F	1	0	2	D	0
{name:Finn4,age:39,taskver:20200410.2-blk40+inst}	Finn4	39	20200410.2-blk40+inst	debugPzYC4	55	567.750000001979	0.8	F	39	p82	1	R	1	500	debugPzYC4_39_Finn4	110	R	2	1	2	D	0
{name:Finn4,age:39,taskver:20200410.2-blk40+inst}	Finn4	39	20200410.2-blk40+inst	debugPzYC4	56	1283.32000000228	0.8	F	37	p82	0.2	D	0.8	500	debugPzYC4_39_Finn4	112	F	1	0	2	D	0
{name:Finn4,age:39,taskver:20200410.2-blk40+inst}	Finn4	39	20200410.2-blk40+inst	debugPzYC4	57	447.350000002189	0.8	F	37	p82	0.2	D	0.8	500	debugPzYC4_39_Finn4	114	F	1	0	2	D	0
{name:Finn4,age:39,taskver:20200410.2-blk40+inst}	Finn4	39	20200410.2-blk40+inst	debugPzYC4	58	502.449999999953	0.2	D	39	p82	0.8	F	0.8	500	debugPzYC4_39_Finn4	116	F	1	0	2	D	0
{name:Finn4,age:39,taskver:20200410.2-blk40+inst}	Finn4	39	20200410.2-blk40+inst	debugPzYC4	59	454.125000003842	0.8	F	37	p82	0.2	D	0.8	500	debugPzYC4_39_Finn4	118	F	1	0	2	D	0
{name:Finn4,age:39,taskver:20200410.2-blk40+inst}	Finn4	39	20200410.2-blk40+inst	debugPzYC4	60	604.820000007749	0.8	F	37	p82	0.2	D	0.8	500	debugPzYC4_39_Finn4	120	F	1	0	2	D	0
{name:Finn4,age:39,taskver:20200410.2-blk40+inst}	Finn4	39	20200410.2-blk40+inst	debugPzYC4	61	463.180000006105	0.2	D	39	p82	0.8	F	0.8	500	debugPzYC4_39_Finn4	122	F	1	0	2	D	0
{name:Finn4,age:39,taskver:20200410.2-blk40+inst}	Finn4	39	20200410.2-blk40+inst	debugPzYC4	62	506.475000001956	0.2	D	39	p82	0.8	F	0.8	500	debugPzYC4_39_Finn4	124	F	1	0	2	D	0
{name:Finn4,age:39,taskver:20200410.2-blk40+inst}	Finn4	39	20200410.2-blk40+inst	debugPzYC4	63	537.30500000529	1	R	37	p82	0.2	D	1	500	debugPzYC4_39_Finn4	126	R	2	1	2	D	0
{name:Finn4,age:39,taskver:20200410.2-blk40+inst}	Finn4	39	20200410.2-blk40+inst	debugPzYC4	64	445.525000002817	0.2	D	39	p82	0.8	F	0.8	500	debugPzYC4_39_Finn4	128	F	1	0	2	D	0
{name:Finn4,age:39,taskver:20200410.2-blk40+inst}	Finn4	39	20200410.2-blk40+inst	debugPzYC4	65	738.980000009178	1	R	37	p82	0.8	F	1	500	debugPzYC4_39_Finn4	130	R	2	1	2	D	0
{name:Finn4,age:39,taskver:20200410.2-blk40+inst}	Finn4	39	20200410.2-blk40+inst	debugPzYC4	66	436.405000000377	0.2	D	39	p82	1	R	1	500	debugPzYC4_39_Finn4	132	R	2	1	2	D	0
{name:Finn4,age:39,taskver:20200410.2-blk40+inst}	Finn4	39	20200410.2-blk40+inst	debugPzYC4	67	664.415000006557	0.8	F	37	p82	0.2	D	0.8	500	debugPzYC4_39_Finn4	134	F	1	0	2	D	0
{name:Finn4,age:39,taskver:20200410.2-blk40+inst}	Finn4	39	20200410.2-blk40+inst	debugPzYC4	68	528.835000004619	0.8	F	37	p82	0.2	D	0.8	500	debugPzYC4_39_Finn4	136	F	1	0	2	D	0
{name:Finn4,age:39,taskver:20200410.2-blk40+inst}	Finn4	39	20200410.2-blk40+inst	debugPzYC4	69	521.760000003269	0.2	D	39	p82	0.8	F	0.8	500	debugPzYC4_39_Finn4	138	F	1	0	2	D	0
{name:Finn4,age:39,taskver:20200410.2-blk40+inst}	Finn4	39	20200410.2-blk40+inst	debugPzYC4	70	416.284999999334	0.8	F	37	p82	0.2	D	0.8	500	debugPzYC4_39_Finn4	140	F	1	0	2	D	0
{name:Finn4,age:39,taskver:20200410.2-blk40+inst}	Finn4	39	20200410.2-blk40+inst	debugPzYC4	71	485.964999999851	0.2	D	39	p82	0.8	F	0.8	500	debugPzYC4_39_Finn4	142	F	1	0	2	D	0
{name:Finn4,age:39,taskver:20200410.2-blk40+inst}	Finn4	39	20200410.2-blk40+inst	debugPzYC4	72	535.040000002482	0.2	D	39	p82	0.8	F	0.8	500	debugPzYC4_39_Finn4	144	F	1	0	2	D	0
{name:Finn4,age:39,taskver:20200410.2-blk40+inst}	Finn4	39	20200410.2-blk40+inst	debugPzYC4	73	845.690000001923	0.2	D	39	p82	0.8	F	0.8	500	debugPzYC4_39_Finn4	146	F	1	0	2	D	0
{name:Finn4,age:39,taskver:20200410.2-blk40+inst}	Finn4	39	20200410.2-blk40+inst	debugPzYC4	74	730.259999996633	0.8	F	39	p82	1	R	1	500	debugPzYC4_39_Finn4	148	R	2	1	2	D	0
{name:Finn4,age:39,taskver:20200410.2-blk40+inst}	Finn4	39	20200410.2-blk40+inst	debugPzYC4	75	669.460000004619	0.8	F	37	p82	0.2	D	0.8	500	debugPzYC4_39_Finn4	150	F	1	0	2	D	0
{name:Finn4,age:39,taskver:20200410.2-blk40+inst}	Finn4	39	20200410.2-blk40+inst	debugPzYC4	76	494.604999999865	0.2	D	39	p82	0.8	F	0.8	500	debugPzYC4_39_Finn4	152	F	1	0	2	D	0
{name:Finn4,age:39,taskver:20200410.2-blk40+inst}	Finn4	39	20200410.2-blk40+inst	debugPzYC4	77	618.390000003274	1	R	37	p82	0.8	F	1	500	debugPzYC4_39_Finn4	154	R	2	1	2	D	0
{name:Finn4,age:39,taskver:20200410.2-blk40+inst}	Finn4	39	20200410.2-blk40+inst	debugPzYC4	78	644.144999998389	0.2	D	39	p82	0.8	F	0.8	500	debugPzYC4_39_Finn4	156	F	1	0	2	D	0
{name:Finn4,age:39,taskver:20200410.2-blk40+inst}	Finn4	39	20200410.2-blk40+inst	debugPzYC4	79	472.985000000335	1	R	37	p82	0.2	D	1	500	debugPzYC4_39_Finn4	158	R	2	1	2	D	0
{name:Finn4,age:39,taskver:20200410.2-blk40+inst}	Finn4	39	20200410.2-blk40+inst	debugPzYC4	80	616.594999999506	0.2	D	39	p82	0.8	F	0.8	500	debugPzYC4_39_Finn4	160	F	1	0	2	D	0
{name:Finn4,age:39,taskver:20200410.2-blk40+inst}	Finn4	39	20200410.2-blk40+inst	debugPzYC4	81	462.209999997867	0.2	F	39	p28	1	R	1	500	debugPzYC4_39_Finn4	162	R	2	1	3	D	0
{name:Finn4,age:39,taskver:20200410.2-blk40+inst}	Finn4	39	20200410.2-blk40+inst	debugPzYC4	82	523.885000002338	0.8	D	37	p28	0.2	F	0.8	500	debugPzYC4_39_Finn4	164	D	1	0	3	D	1
{name:Finn4,age:39,taskver:20200410.2-blk40+inst}	Finn4	39	20200410.2-blk40+inst	debugPzYC4	83	408.835000009276	0.2	F	39	p28	0.8	D	0.8	500	debugPzYC4_39_Finn4	166	D	1	0	3	D	1
{name:Finn4,age:39,taskver:20200410.2-blk40+inst}	Finn4	39	20200410.2-blk40+inst	debugPzYC4	84	500.069999994594	1	R	37	p28	0.8	D	1	500	debugPzYC4_39_Finn4	168	R	2	1	3	D	0
{name:Finn4,age:39,taskver:20200410.2-blk40+inst}	Finn4	39	20200410.2-blk40+inst	debugPzYC4	85	642.814999999246	0.2	F	37	p28	0.8	D	0.2	0	debugPzYC4_39_Finn4	170	F	1	0	3	D	0
{name:Finn4,age:39,taskver:20200410.2-blk40+inst}	Finn4	39	20200410.2-blk40+inst	debugPzYC4	86	540.074999997159	0.8	D	39	p28	0.2	F	0.2	0	debugPzYC4_39_Finn4	172	F	1	0	3	D	0
{name:Finn4,age:39,taskver:20200410.2-blk40+inst}	Finn4	39	20200410.2-blk40+inst	debugPzYC4	87	701.150000008056	0.8	D	39	p28	0.2	F	0.2	0	debugPzYC4_39_Finn4	174	F	1	0	3	D	0
{name:Finn4,age:39,taskver:20200410.2-blk40+inst}	Finn4	39	20200410.2-blk40+inst	debugPzYC4	88	432.814999992843	0.8	D	37	p28	0.2	F	0.8	500	debugPzYC4_39_Finn4	176	D	1	0	3	D	1
{name:Finn4,age:39,taskver:20200410.2-blk40+inst}	Finn4	39	20200410.2-blk40+inst	debugPzYC4	89	682.984999992186	0.8	D	37	p28	0.2	F	0.8	500	debugPzYC4_39_Finn4	178	D	1	0	3	D	1
{name:Finn4,age:39,taskver:20200410.2-blk40+inst}	Finn4	39	20200410.2-blk40+inst	debugPzYC4	90	438.294999999925	0.8	D	37	p28	0.2	F	0.8	500	debugPzYC4_39_Finn4	180	D	1	0	3	D	1
{name:Finn4,age:39,taskver:20200410.2-blk40+inst}	Finn4	39	20200410.2-blk40+inst	debugPzYC4	91	502.364999993006	0.2	F	39	p28	0.8	D	0.8	500	debugPzYC4_39_Finn4	182	D	1	0	3	D	1
{name:Finn4,age:39,taskver:20200410.2-blk40+inst}	Finn4	39	20200410.2-blk40+inst	debugPzYC4	92	447.455000001355	0.2	F	39	p28	0.8	D	0.8	500	debugPzYC4_39_Finn4	184	D	1	0	3	D	1
{name:Finn4,age:39,taskver:20200410.2-blk40+inst}	Finn4	39	20200410.2-blk40+inst	debugPzYC4	93	652.500000011059	0.2	F	39	p28	1	R	1	500	debugPzYC4_39_Finn4	186	R	2	1	3	D	0
{name:Finn4,age:39,taskver:20200410.2-blk40+inst}	Finn4	39	20200410.2-blk40+inst	debugPzYC4	94	661.269999996875	0.8	D	37	p28	0.2	F	0.8	0	debugPzYC4_39_Finn4	188	D	1	0	3	D	1
{name:Finn4,age:39,taskver:20200410.2-blk40+inst}	Finn4	39	20200410.2-blk40+inst	debugPzYC4	95	1883.87000000512	0.8	D	37	p28	0.2	F	0.8	0	debugPzYC4_39_Finn4	190	D	1	0	3	D	1
{name:Finn4,age:39,taskver:20200410.2-blk40+inst}	Finn4	39	20200410.2-blk40+inst	debugPzYC4	96	861.095000000205	0.2	F	37	p28	0.8	D	0.2	0	debugPzYC4_39_Finn4	192	F	1	0	3	D	0
{name:Finn4,age:39,taskver:20200410.2-blk40+inst}	Finn4	39	20200410.2-blk40+inst	debugPzYC4	97	419.65500000515	0.2	F	39	p28	0.8	D	0.8	0	debugPzYC4_39_Finn4	194	D	1	0	3	D	1
{name:Finn4,age:39,taskver:20200410.2-blk40+inst}	Finn4	39	20200410.2-blk40+inst	debugPzYC4	98	523.56499999587	0.2	F	39	p28	0.8	D	0.8	0	debugPzYC4_39_Finn4	196	D	1	0	3	D	1
{name:Finn4,age:39,taskver:20200410.2-blk40+inst}	Finn4	39	20200410.2-blk40+inst	debugPzYC4	99	598.234999997658	0.8	D	39	p28	1	R	1	500	debugPzYC4_39_Finn4	198	R	2	1	3	D	0
{name:Finn4,age:39,taskver:20200410.2-blk40+inst}	Finn4	39	20200410.2-blk40+inst	debugPzYC4	100	422.615000003134	0.2	F	37	p28	0.8	D	0.2	500	debugPzYC4_39_Finn4	200	F	1	0	3	D	0
{name:Finn4,age:39,taskver:20200410.2-blk40+inst}	Finn4	39	20200410.2-blk40+inst	debugPzYC4	101	440.820000003441	0.8	D	37	p28	1	R	0.8	500	debugPzYC4_39_Finn4	202	D	2	0	3	D	1
{name:Finn4,age:39,taskver:20200410.2-blk40+inst}	Finn4	39	20200410.2-blk40+inst	debugPzYC4	102	1221.6150000022	0.2	F	37	p28	0.8	D	0.2	500	debugPzYC4_39_Finn4	204	F	1	0	3	D	0
{name:Finn4,age:39,taskver:20200410.2-blk40+inst}	Finn4	39	20200410.2-blk40+inst	debugPzYC4	103	481.984999991255	0.8	D	39	p28	0.2	F	0.2	0	debugPzYC4_39_Finn4	206	F	1	0	3	D	0
{name:Finn4,age:39,taskver:20200410.2-blk40+inst}	Finn4	39	20200410.2-blk40+inst	debugPzYC4	104	455.509999999776	0.8	D	39	p28	0.2	F	0.2	0	debugPzYC4_39_Finn4	208	F	1	0	3	D	0
{name:Finn4,age:39,taskver:20200410.2-blk40+inst}	Finn4	39	20200410.2-blk40+inst	debugPzYC4	105	476.705000008224	0.8	D	37	p28	0.2	F	0.8	500	debugPzYC4_39_Finn4	210	D	1	0	3	D	1
{name:Finn4,age:39,taskver:20200410.2-blk40+inst}	Finn4	39	20200410.2-blk40+inst	debugPzYC4	106	466.799999994691	0.8	D	37	p28	0.2	F	0.8	500	debugPzYC4_39_Finn4	212	D	1	0	3	D	1
{name:Finn4,age:39,taskver:20200410.2-blk40+inst}	Finn4	39	20200410.2-blk40+inst	debugPzYC4	107	436.784999998054	0.2	F	39	p28	0.8	D	0.8	500	debugPzYC4_39_Finn4	214	D	1	0	3	D	1
{name:Finn4,age:39,taskver:20200410.2-blk40+inst}	Finn4	39	20200410.2-blk40+inst	debugPzYC4	108	464.999999996508	0.8	D	37	p28	0.2	F	0.8	0	debugPzYC4_39_Finn4	216	D	1	0	3	D	1
{name:Finn4,age:39,taskver:20200410.2-blk40+inst}	Finn4	39	20200410.2-blk40+inst	debugPzYC4	109	451.149999993504	0.2	F	39	p28	0.8	D	0.8	500	debugPzYC4_39_Finn4	218	D	1	0	3	D	1
{name:Finn4,age:39,taskver:20200410.2-blk40+inst}	Finn4	39	20200410.2-blk40+inst	debugPzYC4	110	618.895000006887	0.2	F	39	p28	0.8	D	0.8	500	debugPzYC4_39_Finn4	220	D	1	0	3	D	1
{name:Finn4,age:39,taskver:20200410.2-blk40+inst}	Finn4	39	20200410.2-blk40+inst	debugPzYC4	111	451.749999992899	0.2	F	39	p28	0.8	D	0.8	0	debugPzYC4_39_Finn4	222	D	1	0	3	D	1
{name:Finn4,age:39,taskver:20200410.2-blk40+inst}	Finn4	39	20200410.2-blk40+inst	debugPzYC4	112	566.015000003972	1	R	37	p28	0.2	F	1	500	debugPzYC4_39_Finn4	224	R	2	1	3	D	0
{name:Finn4,age:39,taskver:20200410.2-blk40+inst}	Finn4	39	20200410.2-blk40+inst	debugPzYC4	113	517.045000000508	1	R	37	p28	0.2	F	1	500	debugPzYC4_39_Finn4	226	R	2	1	3	D	0
{name:Finn4,age:39,taskver:20200410.2-blk40+inst}	Finn4	39	20200410.2-blk40+inst	debugPzYC4	114	457.234999994398	0.2	F	39	p28	0.8	D	0.8	500	debugPzYC4_39_Finn4	228	D	1	0	3	D	1
{name:Finn4,age:39,taskver:20200410.2-blk40+inst}	Finn4	39	20200410.2-blk40+inst	debugPzYC4	115	544.069999989006	0.8	D	37	p28	0.2	F	0.8	500	debugPzYC4_39_Finn4	230	D	1	0	3	D	1
{name:Finn4,age:39,taskver:20200410.2-blk40+inst}	Finn4	39	20200410.2-blk40+inst	debugPzYC4	116	476.014999992913	0.2	F	39	p28	0.8	D	0.8	500	debugPzYC4_39_Finn4	232	D	1	0	3	D	1
{name:Finn4,age:39,taskver:20200410.2-blk40+inst}	Finn4	39	20200410.2-blk40+inst	debugPzYC4	117	658.720000006724	0.8	D	37	p28	0.2	F	0.8	500	debugPzYC4_39_Finn4	234	D	1	0	3	D	1
{name:Finn4,age:39,taskver:20200410.2-blk40+inst}	Finn4	39	20200410.2-blk40+inst	debugPzYC4	118	480.980000007548	0.2	F	39	p28	0.8	D	0.8	500	debugPzYC4_39_Finn4	236	D	1	0	3	D	1
{name:Finn4,age:39,taskver:20200410.2-blk40+inst}	Finn4	39	20200410.2-blk40+inst	debugPzYC4	119	531.82000000379	0.8	D	37	p28	0.2	F	0.8	500	debugPzYC4_39_Finn4	238	D	1	0	3	D	1
{name:Finn4,age:39,taskver:20200410.2-blk40+inst}	Finn4	39	20200410.2-blk40+inst	debugPzYC4	120	667.734999995446	1	R	37	p28	0.8	D	1	500	debugPzYC4_39_Finn4	240	R	2	1	3	D	0
{name:Finn4,age:39,taskver:20200410.2-blk40+inst}	Finn4	39	20200410.2-blk40+inst	debugPzYC4	121	492.364999998244	0.2	D	37	p82	0.8	F	0.2	0	debugPzYC4_39_Finn4	242	D	1	0	4	D	1
{name:Finn4,age:39,taskver:20200410.2-blk40+inst}	Finn4	39	20200410.2-blk40+inst	debugPzYC4	122	593.17999999621	0.8	F	39	p82	0.2	D	0.2	0	debugPzYC4_39_Finn4	244	D	1	0	4	D	1
{name:Finn4,age:39,taskver:20200410.2-blk40+inst}	Finn4	39	20200410.2-blk40+inst	debugPzYC4	123	538.09000000183	0.8	F	39	p82	1	R	1	500	debugPzYC4_39_Finn4	246	R	2	1	4	D	0
{name:Finn4,age:39,taskver:20200410.2-blk40+inst}	Finn4	39	20200410.2-blk40+inst	debugPzYC4	124	493.70999999519	0.8	F	39	p82	0.2	D	0.2	0	debugPzYC4_39_Finn4	248	D	1	0	4	D	1
{name:Finn4,age:39,taskver:20200410.2-blk40+inst}	Finn4	39	20200410.2-blk40+inst	debugPzYC4	125	500.644999992801	0.8	F	39	p82	0.2	D	0.2	500	debugPzYC4_39_Finn4	250	D	1	0	4	D	1
{name:Finn4,age:39,taskver:20200410.2-blk40+inst}	Finn4	39	20200410.2-blk40+inst	debugPzYC4	126	594.46000000753	0.2	D	37	p82	0.8	F	0.2	500	debugPzYC4_39_Finn4	252	D	1	0	4	D	1
{name:Finn4,age:39,taskver:20200410.2-blk40+inst}	Finn4	39	20200410.2-blk40+inst	debugPzYC4	127	624.769999994896	1	R	37	p82	0.8	F	1	500	debugPzYC4_39_Finn4	254	R	2	1	4	D	0
{name:Finn4,age:39,taskver:20200410.2-blk40+inst}	Finn4	39	20200410.2-blk40+inst	debugPzYC4	128	501.485000000685	0.8	F	39	p82	0.2	D	0.2	0	debugPzYC4_39_Finn4	256	D	1	0	4	D	1
{name:Finn4,age:39,taskver:20200410.2-blk40+inst}	Finn4	39	20200410.2-blk40+inst	debugPzYC4	129	549.169999998412	0.8	F	39	p82	1	R	1	500	debugPzYC4_39_Finn4	258	R	2	1	4	D	0
{name:Finn4,age:39,taskver:20200410.2-blk40+inst}	Finn4	39	20200410.2-blk40+inst	debugPzYC4	130	494.254999997793	0.2	D	37	p82	0.8	F	0.2	500	debugPzYC4_39_Finn4	260	D	1	0	4	D	1
{name:Finn4,age:39,taskver:20200410.2-blk40+inst}	Finn4	39	20200410.2-blk40+inst	debugPzYC4	131	844.615000009071	0.8	F	39	p82	0.2	D	0.2	0	debugPzYC4_39_Finn4	262	D	1	0	4	D	1
{name:Finn4,age:39,taskver:20200410.2-blk40+inst}	Finn4	39	20200410.2-blk40+inst	debugPzYC4	132	481.639999998151	0.8	F	39	p82	0.2	D	0.2	0	debugPzYC4_39_Finn4	264	D	1	0	4	D	1
{name:Finn4,age:39,taskver:20200410.2-blk40+inst}	Finn4	39	20200410.2-blk40+inst	debugPzYC4	133	459.849999999278	0.8	F	39	p82	0.2	D	0.2	0	debugPzYC4_39_Finn4	266	D	1	0	4	D	1
{name:Finn4,age:39,taskver:20200410.2-blk40+inst}	Finn4	39	20200410.2-blk40+inst	debugPzYC4	134	472.634999998263	0.2	D	37	p82	0.8	F	0.2	0	debugPzYC4_39_Finn4	268	D	1	0	4	D	1
{name:Finn4,age:39,taskver:20200410.2-blk40+inst}	Finn4	39	20200410.2-blk40+inst	debugPzYC4	135	497.480000005453	0.8	F	37	p82	0.2	D	0.8	500	debugPzYC4_39_Finn4	270	F	1	0	4	D	0
{name:Finn4,age:39,taskver:20200410.2-blk40+inst}	Finn4	39	20200410.2-blk40+inst	debugPzYC4	136	572.814999992261	0.2	D	39	p82	0.8	F	0.8	500	debugPzYC4_39_Finn4	272	F	1	0	4	D	0
{name:Finn4,age:39,taskver:20200410.2-blk40+inst}	Finn4	39	20200410.2-blk40+inst	debugPzYC4	137	476.834999994026	0.2	D	39	p82	0.8	F	0.8	500	debugPzYC4_39_Finn4	274	F	1	0	4	D	0
{name:Finn4,age:39,taskver:20200410.2-blk40+inst}	Finn4	39	20200410.2-blk40+inst	debugPzYC4	138	665.040000007139	0.2	D	39	p82	0.8	F	0.8	500	debugPzYC4_39_Finn4	276	F	1	0	4	D	0
{name:Finn4,age:39,taskver:20200410.2-blk40+inst}	Finn4	39	20200410.2-blk40+inst	debugPzYC4	139	487.894999998389	0.8	F	37	p82	0.2	D	0.8	0	debugPzYC4_39_Finn4	278	F	1	0	4	D	0
{name:Finn4,age:39,taskver:20200410.2-blk40+inst}	Finn4	39	20200410.2-blk40+inst	debugPzYC4	140	546.324999988428	0.2	D	39	p82	0.8	F	0.8	500	debugPzYC4_39_Finn4	280	F	1	0	4	D	0
{name:Finn4,age:39,taskver:20200410.2-blk40+inst}	Finn4	39	20200410.2-blk40+inst	debugPzYC4	141	512.294999993173	0.2	D	39	p82	0.8	F	0.8	500	debugPzYC4_39_Finn4	282	F	1	0	4	D	0
{name:Finn4,age:39,taskver:20200410.2-blk40+inst}	Finn4	39	20200410.2-blk40+inst	debugPzYC4	142	434.124999999767	0.2	D	37	p82	1	R	0.2	0	debugPzYC4_39_Finn4	284	D	2	0	4	D	1
{name:Finn4,age:39,taskver:20200410.2-blk40+inst}	Finn4	39	20200410.2-blk40+inst	debugPzYC4	143	904.47999999742	0.2	D	39	p82	0.8	F	0.8	500	debugPzYC4_39_Finn4	286	F	1	0	4	D	0
{name:Finn4,age:39,taskver:20200410.2-blk40+inst}	Finn4	39	20200410.2-blk40+inst	debugPzYC4	144	774.915000001783	0.8	F	37	p82	0.2	D	0.8	500	debugPzYC4_39_Finn4	288	F	1	0	4	D	0
{name:Finn4,age:39,taskver:20200410.2-blk40+inst}	Finn4	39	20200410.2-blk40+inst	debugPzYC4	145	459.094999998342	0.2	D	39	p82	0.8	F	0.8	500	debugPzYC4_39_Finn4	290	F	1	0	4	D	0
{name:Finn4,age:39,taskver:20200410.2-blk40+inst}	Finn4	39	20200410.2-blk40+inst	debugPzYC4	146	456.724999996368	0.8	F	37	p82	0.2	D	0.8	500	debugPzYC4_39_Finn4	292	F	1	0	4	D	0
{name:Finn4,age:39,taskver:20200410.2-blk40+inst}	Finn4	39	20200410.2-blk40+inst	debugPzYC4	147	517.160000003059	0.2	D	39	p82	0.8	F	0.8	500	debugPzYC4_39_Finn4	294	F	1	0	4	D	0
{name:Finn4,age:39,taskver:20200410.2-blk40+inst}	Finn4	39	20200410.2-blk40+inst	debugPzYC4	148	634.024999992107	0.2	D	39	p82	1	R	1	500	debugPzYC4_39_Finn4	296	R	2	1	4	D	0
{name:Finn4,age:39,taskver:20200410.2-blk40+inst}	Finn4	39	20200410.2-blk40+inst	debugPzYC4	149	556.23000000196	0.2	D	39	p82	0.8	F	0.8	500	debugPzYC4_39_Finn4	298	F	1	0	4	D	0
{name:Finn4,age:39,taskver:20200410.2-blk40+inst}	Finn4	39	20200410.2-blk40+inst	debugPzYC4	150	697.384999992209	0.2	D	39	p82	0.8	F	0.8	500	debugPzYC4_39_Finn4	300	F	1	0	4	D	0
{name:Finn4,age:39,taskver:20200410.2-blk40+inst}	Finn4	39	20200410.2-blk40+inst	debugPzYC4	151	552.599999995437	1	R	37	p82	0.2	D	1	500	debugPzYC4_39_Finn4	302	R	2	1	4	D	0
{name:Finn4,age:39,taskver:20200410.2-blk40+inst}	Finn4	39	20200410.2-blk40+inst	debugPzYC4	152	714.249999989988	0.8	F	37	p82	0.2	D	0.8	500	debugPzYC4_39_Finn4	304	F	1	0	4	D	0
{name:Finn4,age:39,taskver:20200410.2-blk40+inst}	Finn4	39	20200410.2-blk40+inst	debugPzYC4	153	470.449999993434	0.2	D	39	p82	0.8	F	0.8	500	debugPzYC4_39_Finn4	306	F	1	0	4	D	0
{name:Finn4,age:39,taskver:20200410.2-blk40+inst}	Finn4	39	20200410.2-blk40+inst	debugPzYC4	154	645.490000009886	1	R	37	p82	0.8	F	1	500	debugPzYC4_39_Finn4	308	R	2	1	4	D	0
{name:Finn4,age:39,taskver:20200410.2-blk40+inst}	Finn4	39	20200410.2-blk40+inst	debugPzYC4	155	509.90499999898	1	R	37	p82	0.2	D	1	500	debugPzYC4_39_Finn4	310	R	2	1	4	D	0
{name:Finn4,age:39,taskver:20200410.2-blk40+inst}	Finn4	39	20200410.2-blk40+inst	debugPzYC4	156	781.569999991916	0.8	F	37	p82	0.2	D	0.8	500	debugPzYC4_39_Finn4	312	F	1	0	4	D	0
{name:Finn4,age:39,taskver:20200410.2-blk40+inst}	Finn4	39	20200410.2-blk40+inst	debugPzYC4	157	662.129999996978	0.8	F	37	p82	0.2	D	0.8	500	debugPzYC4_39_Finn4	314	F	1	0	4	D	0
{name:Finn4,age:39,taskver:20200410.2-blk40+inst}	Finn4	39	20200410.2-blk40+inst	debugPzYC4	158	610.520000001998	0.8	F	37	p82	0.2	D	0.8	500	debugPzYC4_39_Finn4	316	F	1	0	4	D	0
{name:Finn4,age:39,taskver:20200410.2-blk40+inst}	Finn4	39	20200410.2-blk40+inst	debugPzYC4	159	643.844999998691	0.8	F	37	p82	0.2	D	0.8	500	debugPzYC4_39_Finn4	318	F	1	0	4	D	0
{name:Finn4,age:39,taskver:20200410.2-blk40+inst}	Finn4	39	20200410.2-blk40+inst	debugPzYC4	160	580.075000005309	0.2	D	39	p82	0.8	F	0.8	500	debugPzYC4_39_Finn4	320	F	1	0	4	D	0
{name:Finn4,age:39,taskver:20200410.2-blk40+inst}	Finn4	39	20200410.2-blk40+inst	debugPzYC4	161	516.660000008414	1	D	39	p11	1	F	1	500	debugPzYC4_39_Finn4	322	F	1	0	5	D	0
{name:Finn4,age:39,taskver:20200410.2-blk40+inst}	Finn4	39	20200410.2-blk40+inst	debugPzYC4	162	632.295000003069	1	D	39	p11	1	R	1	500	debugPzYC4_39_Finn4	324	R	2	1	5	D	0
{name:Finn4,age:39,taskver:20200410.2-blk40+inst}	Finn4	39	20200410.2-blk40+inst	debugPzYC4	163	568.605000007665	1	D	39	p11	1	F	1	500	debugPzYC4_39_Finn4	326	F	1	0	5	D	0
{name:Finn4,age:39,taskver:20200410.2-blk40+inst}	Finn4	39	20200410.2-blk40+inst	debugPzYC4	164	529.369999989285	1	F	37	p11	1	D	1	500	debugPzYC4_39_Finn4	328	F	1	0	5	D	0
{name:Finn4,age:39,taskver:20200410.2-blk40+inst}	Finn4	39	20200410.2-blk40+inst	debugPzYC4	165	635.680000006687	1	D	39	p11	1	R	1	500	debugPzYC4_39_Finn4	330	R	2	1	5	D	0
{name:Finn4,age:39,taskver:20200410.2-blk40+inst}	Finn4	39	20200410.2-blk40+inst	debugPzYC4	166	584.235000002082	1	F	37	p11	1	D	1	500	debugPzYC4_39_Finn4	332	F	1	0	5	D	0
{name:Finn4,age:39,taskver:20200410.2-blk40+inst}	Finn4	39	20200410.2-blk40+inst	debugPzYC4	167	545.7150000002	1	F	37	p11	1	D	1	500	debugPzYC4_39_Finn4	334	F	1	0	5	D	0
{name:Finn4,age:39,taskver:20200410.2-blk40+inst}	Finn4	39	20200410.2-blk40+inst	debugPzYC4	168	659.615000011399	1	D	39	p11	1	F	1	500	debugPzYC4_39_Finn4	336	F	1	0	5	D	0
{name:Finn4,age:39,taskver:20200410.2-blk40+inst}	Finn4	39	20200410.2-blk40+inst	debugPzYC4	169	576.935000004596	1	D	39	p11	1	F	1	500	debugPzYC4_39_Finn4	338	F	1	0	5	D	0
{name:Finn4,age:39,taskver:20200410.2-blk40+inst}	Finn4	39	20200410.2-blk40+inst	debugPzYC4	170	505.539999998291	1	F	37	p11	1	D	1	500	debugPzYC4_39_Finn4	340	F	1	0	5	D	0
{name:Finn4,age:39,taskver:20200410.2-blk40+inst}	Finn4	39	20200410.2-blk40+inst	debugPzYC4	171	530.775000006543	1	F	37	p11	1	D	1	500	debugPzYC4_39_Finn4	342	F	1	0	5	D	0
{name:Finn4,age:39,taskver:20200410.2-blk40+inst}	Finn4	39	20200410.2-blk40+inst	debugPzYC4	172	517.380000004778	1	F	39	p11	1	R	1	500	debugPzYC4_39_Finn4	344	R	2	1	5	D	0
{name:Finn4,age:39,taskver:20200410.2-blk40+inst}	Finn4	39	20200410.2-blk40+inst	debugPzYC4	173	626.029999999446	1	F	37	p11	1	D	1	500	debugPzYC4_39_Finn4	346	F	1	0	5	D	0
{name:Finn4,age:39,taskver:20200410.2-blk40+inst}	Finn4	39	20200410.2-blk40+inst	debugPzYC4	174	493.329999997513	1	F	37	p11	1	D	1	500	debugPzYC4_39_Finn4	348	F	1	0	5	D	0
{name:Finn4,age:39,taskver:20200410.2-blk40+inst}	Finn4	39	20200410.2-blk40+inst	debugPzYC4	175	479.26500000176	1	F	37	p11	1	D	1	500	debugPzYC4_39_Finn4	350	F	1	0	5	D	0
{name:Finn4,age:39,taskver:20200410.2-blk40+inst}	Finn4	39	20200410.2-blk40+inst	debugPzYC4	176	566.875000004075	1	R	37	p11	1	D	1	500	debugPzYC4_39_Finn4	352	R	2	1	5	D	0
{name:Finn4,age:39,taskver:20200410.2-blk40+inst}	Finn4	39	20200410.2-blk40+inst	debugPzYC4	177	512.979999999516	1	F	37	p11	1	D	1	500	debugPzYC4_39_Finn4	354	F	1	0	5	D	0
{name:Finn4,age:39,taskver:20200410.2-blk40+inst}	Finn4	39	20200410.2-blk40+inst	debugPzYC4	178	599.490000007791	1	R	37	p11	1	D	1	500	debugPzYC4_39_Finn4	356	R	2	1	5	D	0
{name:Finn4,age:39,taskver:20200410.2-blk40+inst}	Finn4	39	20200410.2-blk40+inst	debugPzYC4	179	497.575000001234	1	F	39	p11	1	R	1	500	debugPzYC4_39_Finn4	358	R	2	1	5	D	0
{name:Finn4,age:39,taskver:20200410.2-blk40+inst}	Finn4	39	20200410.2-blk40+inst	debugPzYC4	180	528.135000000475	1	F	37	p11	1	D	1	500	debugPzYC4_39_Finn4	360	F	1	0	5	D	0
{name:Finn4,age:39,taskver:20200410.2-blk40+inst}	Finn4	39	20200410.2-blk40+inst	debugPzYC4	181	594.830000001821	1	D	39	p11	1	F	1	500	debugPzYC4_39_Finn4	362	F	1	0	5	D	0
{name:Finn4,age:39,taskver:20200410.2-blk40+inst}	Finn4	39	20200410.2-blk40+inst	debugPzYC4	182	488.564999992377	1	R	37	p11	1	F	1	500	debugPzYC4_39_Finn4	364	R	2	1	5	D	0
{name:Finn4,age:39,taskver:20200410.2-blk40+inst}	Finn4	39	20200410.2-blk40+inst	debugPzYC4	183	491.04000000807	1	F	39	p11	1	R	1	500	debugPzYC4_39_Finn4	366	R	2	1	5	D	0
{name:Finn4,age:39,taskver:20200410.2-blk40+inst}	Finn4	39	20200410.2-blk40+inst	debugPzYC4	184	594.865000006394	1	D	39	p11	1	F	1	500	debugPzYC4_39_Finn4	368	F	1	0	5	D	0
{name:Finn4,age:39,taskver:20200410.2-blk40+inst}	Finn4	39	20200410.2-blk40+inst	debugPzYC4	185	525.56999999797	1	F	37	p11	1	D	1	500	debugPzYC4_39_Finn4	370	F	1	0	5	D	0
{name:Finn4,age:39,taskver:20200410.2-blk40+inst}	Finn4	39	20200410.2-blk40+inst	debugPzYC4	186	553.95000000135	1	F	37	p11	1	D	1	500	debugPzYC4_39_Finn4	372	F	1	0	5	D	0
{name:Finn4,age:39,taskver:20200410.2-blk40+inst}	Finn4	39	20200410.2-blk40+inst	debugPzYC4	187	487.160000004224	1	F	37	p11	1	D	1	500	debugPzYC4_39_Finn4	374	F	1	0	5	D	0
{name:Finn4,age:39,taskver:20200410.2-blk40+inst}	Finn4	39	20200410.2-blk40+inst	debugPzYC4	188	520.635000008042	1	D	39	p11	1	F	1	500	debugPzYC4_39_Finn4	376	F	1	0	5	D	0
{name:Finn4,age:39,taskver:20200410.2-blk40+inst}	Finn4	39	20200410.2-blk40+inst	debugPzYC4	189	571.844999998575	1	R	37	p11	1	D	1	500	debugPzYC4_39_Finn4	378	R	2	1	5	D	0
{name:Finn4,age:39,taskver:20200410.2-blk40+inst}	Finn4	39	20200410.2-blk40+inst	debugPzYC4	190	688.355000005686	1	F	37	p11	1	D	1	500	debugPzYC4_39_Finn4	380	F	1	0	5	D	0
{name:Finn4,age:39,taskver:20200410.2-blk40+inst}	Finn4	39	20200410.2-blk40+inst	debugPzYC4	191	565.505000005942	1	F	37	p11	1	D	1	500	debugPzYC4_39_Finn4	382	F	1	0	5	D	0
{name:Finn4,age:39,taskver:20200410.2-blk40+inst}	Finn4	39	20200410.2-blk40+inst	debugPzYC4	192	492.019999990589	1	F	37	p11	1	D	1	500	debugPzYC4_39_Finn4	384	F	1	0	5	D	0
{name:Finn4,age:39,taskver:20200410.2-blk40+inst}	Finn4	39	20200410.2-blk40+inst	debugPzYC4	193	448.510000001988	1	F	37	p11	1	D	1	500	debugPzYC4_39_Finn4	386	F	1	0	5	D	0
{name:Finn4,age:39,taskver:20200410.2-blk40+inst}	Finn4	39	20200410.2-blk40+inst	debugPzYC4	194	439.570000002277	1	D	37	p11	1	F	1	500	debugPzYC4_39_Finn4	388	D	1	0	5	D	1
{name:Finn4,age:39,taskver:20200410.2-blk40+inst}	Finn4	39	20200410.2-blk40+inst	debugPzYC4	195	488.965000011376	1	F	37	p11	1	D	1	500	debugPzYC4_39_Finn4	390	F	1	0	5	D	0
{name:Finn4,age:39,taskver:20200410.2-blk40+inst}	Finn4	39	20200410.2-blk40+inst	debugPzYC4	196	480.584999997518	1	F	37	p11	1	D	1	500	debugPzYC4_39_Finn4	392	F	1	0	5	D	0
{name:Finn4,age:39,taskver:20200410.2-blk40+inst}	Finn4	39	20200410.2-blk40+inst	debugPzYC4	197	461.240000004182	1	D	39	p11	1	F	1	500	debugPzYC4_39_Finn4	394	F	1	0	5	D	0
{name:Finn4,age:39,taskver:20200410.2-blk40+inst}	Finn4	39	20200410.2-blk40+inst	debugPzYC4	198	452.629999999772	1	F	37	p11	1	D	1	500	debugPzYC4_39_Finn4	396	F	1	0	5	D	0
{name:Finn4,age:39,taskver:20200410.2-blk40+inst}	Finn4	39	20200410.2-blk40+inst	debugPzYC4	199	542.525000011665	1	D	39	p11	1	F	1	500	debugPzYC4_39_Finn4	398	F	1	0	5	D	0
{name:Finn4,age:39,taskver:20200410.2-blk40+inst}	Finn4	39	20200410.2-blk40+inst	debugPzYC4	200	498.559999992722	1	F	37	p11	1	D	1	500	debugPzYC4_39_Finn4	400	F	1	0	5	D	0
{name:Finn4,age:39,taskver:20200410.2-blk40+inst}	Finn4	39	20200410.2-blk40+inst	debugPzYC4	201	584.174999996321	1	D	37	p11	1	F	1	500	debugPzYC4_39_Finn4	402	D	1	0	5	D	1
{name:Finn4,age:39,taskver:20200410.2-blk40+inst}	Finn4	39	20200410.2-blk40+inst	debugPzYC4	202	597.125000000233	1	F	37	p11	1	D	1	500	debugPzYC4_39_Finn4	404	F	1	0	5	D	0
{name:Finn4,age:39,taskver:20200410.2-blk40+inst}	Finn4	39	20200410.2-blk40+inst	debugPzYC4	203	453.785000005155	1	D	39	p11	1	F	1	500	debugPzYC4_39_Finn4	406	F	1	0	5	D	0
{name:Finn4,age:39,taskver:20200410.2-blk40+inst}	Finn4	39	20200410.2-blk40+inst	debugPzYC4	204	463.140000007115	1	D	39	p11	1	R	1	500	debugPzYC4_39_Finn4	408	R	2	1	5	D	0
{name:Finn4,age:39,taskver:20200410.2-blk40+inst}	Finn4	39	20200410.2-blk40+inst	debugPzYC4	205	515.354999995907	1	F	37	p11	1	D	1	500	debugPzYC4_39_Finn4	410	F	1	0	5	D	0
{name:Finn4,age:39,taskver:20200410.2-blk40+inst}	Finn4	39	20200410.2-blk40+inst	debugPzYC4	206	507.435000006808	1	D	39	p11	1	F	1	500	debugPzYC4_39_Finn4	412	F	1	0	5	D	0
{name:Finn4,age:39,taskver:20200410.2-blk40+inst}	Finn4	39	20200410.2-blk40+inst	debugPzYC4	207	653.525000001537	1	D	39	p11	1	F	1	500	debugPzYC4_39_Finn4	414	F	1	0	5	D	0
{name:Finn4,age:39,taskver:20200410.2-blk40+inst}	Finn4	39	20200410.2-blk40+inst	debugPzYC4	208	492.459999994026	1	D	39	p11	1	F	1	500	debugPzYC4_39_Finn4	416	F	1	0	5	D	0
{name:Finn4,age:39,taskver:20200410.2-blk40+inst}	Finn4	39	20200410.2-blk40+inst	debugPzYC4	209	651.440000001458	1	F	37	p11	1	D	1	500	debugPzYC4_39_Finn4	418	F	1	0	5	D	0
{name:Finn4,age:39,taskver:20200410.2-blk40+inst}	Finn4	39	20200410.2-blk40+inst	debugPzYC4	210	518.144999994547	1	D	39	p11	1	F	1	500	debugPzYC4_39_Finn4	420	F	1	0	5	D	0
{name:Finn4,age:39,taskver:20200410.2-blk40+inst}	Finn4	39	20200410.2-blk40+inst	debugPzYC4	211	410.495000003721	1	F	37	p11	1	D	1	500	debugPzYC4_39_Finn4	422	F	1	0	5	D	0
{name:Finn4,age:39,taskver:20200410.2-blk40+inst}	Finn4	39	20200410.2-blk40+inst	debugPzYC4	212	548.064999995404	1	D	39	p11	1	F	1	500	debugPzYC4_39_Finn4	424	F	1	0	5	D	0
{name:Finn4,age:39,taskver:20200410.2-blk40+inst}	Finn4	39	20200410.2-blk40+inst	debugPzYC4	213	448.18999999552	1	F	37	p11	1	D	1	500	debugPzYC4_39_Finn4	426	F	1	0	5	D	0
{name:Finn4,age:39,taskver:20200410.2-blk40+inst}	Finn4	39	20200410.2-blk40+inst	debugPzYC4	214	604.659999997239	1	F	37	p11	1	D	1	500	debugPzYC4_39_Finn4	428	F	1	0	5	D	0
{name:Finn4,age:39,taskver:20200410.2-blk40+inst}	Finn4	39	20200410.2-blk40+inst	debugPzYC4	215	615.585000006831	1	D	37	p11	1	F	1	500	debugPzYC4_39_Finn4	430	D	1	0	5	D	1
{name:Finn4,age:39,taskver:20200410.2-blk40+inst}	Finn4	39	20200410.2-blk40+inst	debugPzYC4	216	509.259999991627	1	D	37	p11	1	F	1	500	debugPzYC4_39_Finn4	432	D	1	0	5	D	1
{name:Finn4,age:39,taskver:20200410.2-blk40+inst}	Finn4	39	20200410.2-blk40+inst	debugPzYC4	217	603.484999999637	1	F	39	p11	1	D	1	500	debugPzYC4_39_Finn4	434	D	1	0	5	D	1
{name:Finn4,age:39,taskver:20200410.2-blk40+inst}	Finn4	39	20200410.2-blk40+inst	debugPzYC4	218	391.839999996591	1	F	37	p11	1	D	1	500	debugPzYC4_39_Finn4	436	F	1	0	5	D	0
{name:Finn4,age:39,taskver:20200410.2-blk40+inst}	Finn4	39	20200410.2-blk40+inst	debugPzYC4	219	567.340000008699	1	R	37	p11	1	D	1	500	debugPzYC4_39_Finn4	438	R	2	1	5	D	0
{name:Finn4,age:39,taskver:20200410.2-blk40+inst}	Finn4	39	20200410.2-blk40+inst	debugPzYC4	220	566.99999999546	1	D	39	p11	1	F	1	500	debugPzYC4_39_Finn4	440	F	1	0	5	D	0
{name:Finn4,age:39,taskver:20200410.2-blk40+inst}	Finn4	39	20200410.2-blk40+inst	debugPzYC4	221	410.30000000319	1	D	37	p11	1	F	1	500	debugPzYC4_39_Finn4	442	D	1	0	5	D	1
{name:Finn4,age:39,taskver:20200410.2-blk40+inst}	Finn4	39	20200410.2-blk40+inst	debugPzYC4	222	576.404999999795	1	D	39	p11	1	F	1	500	debugPzYC4_39_Finn4	444	F	1	0	5	D	0
{name:Finn4,age:39,taskver:20200410.2-blk40+inst}	Finn4	39	20200410.2-blk40+inst	debugPzYC4	223	615.384999997332	1	D	39	p11	1	R	1	500	debugPzYC4_39_Finn4	446	R	2	1	5	D	0
{name:Finn4,age:39,taskver:20200410.2-blk40+inst}	Finn4	39	20200410.2-blk40+inst	debugPzYC4	224	416.304999991553	1	F	39	p11	1	R	1	500	debugPzYC4_39_Finn4	448	R	2	1	5	D	0
{name:Finn4,age:39,taskver:20200410.2-blk40+inst}	Finn4	39	20200410.2-blk40+inst	debugPzYC4	225	452.734999998938	1	D	39	p11	1	F	1	500	debugPzYC4_39_Finn4	450	F	1	0	5	D	0
{name:Finn4,age:39,taskver:20200410.2-blk40+inst}	Finn4	39	20200410.2-blk40+inst	debugPzYC4	226	504.07000000996	1	R	37	p11	1	F	1	500	debugPzYC4_39_Finn4	452	R	2	1	5	D	0
{name:Finn4,age:39,taskver:20200410.2-blk40+inst}	Finn4	39	20200410.2-blk40+inst	debugPzYC4	227	709.359999993467	1	R	37	p11	1	F	1	500	debugPzYC4_39_Finn4	454	R	2	1	5	D	0
{name:Finn4,age:39,taskver:20200410.2-blk40+inst}	Finn4	39	20200410.2-blk40+inst	debugPzYC4	228	496.249999996508	1	D	39	p11	1	F	1	500	debugPzYC4_39_Finn4	456	F	1	0	5	D	0
{name:Finn4,age:39,taskver:20200410.2-blk40+inst}	Finn4	39	20200410.2-blk40+inst	debugPzYC4	229	573.730000003707	1	R	37	p11	1	F	1	500	debugPzYC4_39_Finn4	458	R	2	1	5	D	0
{name:Finn4,age:39,taskver:20200410.2-blk40+inst}	Finn4	39	20200410.2-blk40+inst	debugPzYC4	230	735.97000000882	1	D	39	p11	1	F	1	500	debugPzYC4_39_Finn4	460	F	1	0	5	D	0
{name:Finn4,age:39,taskver:20200410.2-blk40+inst}	Finn4	39	20200410.2-blk40+inst	debugPzYC4	231	633.675000004587	1	D	39	p11	1	F	1	500	debugPzYC4_39_Finn4	462	F	1	0	5	D	0
{name:Finn4,age:39,taskver:20200410.2-blk40+inst}	Finn4	39	20200410.2-blk40+inst	debugPzYC4	232	713.285000005271	1	D	39	p11	1	F	1	500	debugPzYC4_39_Finn4	464	F	1	0	5	D	0
{name:Finn4,age:39,taskver:20200410.2-blk40+inst}	Finn4	39	20200410.2-blk40+inst	debugPzYC4	233	500.410000007832	1	D	37	p11	1	F	1	500	debugPzYC4_39_Finn4	466	D	1	0	5	D	1
{name:Finn4,age:39,taskver:20200410.2-blk40+inst}	Finn4	39	20200410.2-blk40+inst	debugPzYC4	234	415.219999995315	1	D	37	p11	1	F	1	500	debugPzYC4_39_Finn4	468	D	1	0	5	D	1
{name:Finn4,age:39,taskver:20200410.2-blk40+inst}	Finn4	39	20200410.2-blk40+inst	debugPzYC4	235	388.959999996587	1	F	37	p11	1	D	1	500	debugPzYC4_39_Finn4	470	F	1	0	5	D	0
{name:Finn4,age:39,taskver:20200410.2-blk40+inst}	Finn4	39	20200410.2-blk40+inst	debugPzYC4	236	361.384999996517	1	F	37	p11	1	D	1	500	debugPzYC4_39_Finn4	472	F	1	0	5	D	0
{name:Finn4,age:39,taskver:20200410.2-blk40+inst}	Finn4	39	20200410.2-blk40+inst	debugPzYC4	237	315.189999993891	1	D	37	p11	1	F	1	500	debugPzYC4_39_Finn4	474	D	1	0	5	D	1
{name:Finn4,age:39,taskver:20200410.2-blk40+inst}	Finn4	39	20200410.2-blk40+inst	debugPzYC4	238	309.720000004745	1	F	37	p11	1	D	1	500	debugPzYC4_39_Finn4	476	F	1	0	5	D	0
{name:Finn4,age:39,taskver:20200410.2-blk40+inst}	Finn4	39	20200410.2-blk40+inst	debugPzYC4	239	325.454999998328	1	D	37	p11	1	F	1	500	debugPzYC4_39_Finn4	478	D	1	0	5	D	1
{name:Finn4,age:39,taskver:20200410.2-blk40+inst}	Finn4	39	20200410.2-blk40+inst	debugPzYC4	240	247.935000006692	1	D	37	p11	1	F	1	500	debugPzYC4_39_Finn4	480	D	1	0	5	D	1
{name:Laurie,age:24}	Laurie	24	NA	debugH0Kyz	1	6066.00000010803	0.2	F	37	p28	0.8	D	0.2	0	debugH0Kyz_24_Laurie	2	F	1	0	1	D	0
{name:Laurie,age:24}	Laurie	24	NA	debugH0Kyz	2	3147.00000011362	0.2	F	39	p28	0.8	D	0.8	0	debugH0Kyz_24_Laurie	4	D	1	0	1	D	1
{name:Laurie,age:24}	Laurie	24	NA	debugH0Kyz	3	8434.99999982305	0.8	D	39	p28	0.2	F	0.2	500	debugH0Kyz_24_Laurie	6	F	1	0	1	D	0
{name:Laurie,age:24}	Laurie	24	NA	debugH0Kyz	4	2646.00000018254	0.2	F	37	p28	0.8	D	0.2	0	debugH0Kyz_24_Laurie	8	F	1	0	1	D	0
{name:Laurie,age:24}	Laurie	24	NA	debugH0Kyz	5	4368.00000001676	0.8	D	39	p28	0.2	F	0.2	0	debugH0Kyz_24_Laurie	10	F	1	0	1	D	0
{name:Laurie,age:24}	Laurie	24	NA	debugH0Kyz	6	4418.00000006333	0.8	D	37	p28	1	R	0.8	500	debugH0Kyz_24_Laurie	12	D	2	0	1	D	1
{name:Laurie,age:24}	Laurie	24	NA	debugH0Kyz	7	3069.00000013411	0.2	F	39	p28	0.8	D	0.8	0	debugH0Kyz_24_Laurie	14	D	1	0	1	D	1
{name:Laurie,age:24}	Laurie	24	NA	debugH0Kyz	8	2605.99999991246	0.2	F	37	p28	1	R	0.2	0	debugH0Kyz_24_Laurie	16	F	2	0	1	D	0
{name:Laurie,age:24}	Laurie	24	NA	debugH0Kyz	9	3168.00000006333	0.2	F	37	p28	0.8	D	0.2	500	debugH0Kyz_24_Laurie	18	F	1	0	1	D	0
{name:Laurie,age:24}	Laurie	24	NA	debugH0Kyz	10	2688.00000008196	1	R	37	p28	0.8	D	1	500	debugH0Kyz_24_Laurie	20	R	2	1	1	D	0
{name:Laurie,age:24}	Laurie	24	NA	debugH0Kyz	11	9432.99999996088	0.8	D	39	p28	0.2	F	0.2	500	debugH0Kyz_24_Laurie	22	F	1	0	1	D	0
{name:Laurie,age:24}	Laurie	24	NA	debugH0Kyz	12	1600.00000009313	1	R	39	p28	0.2	F	0.2	0	debugH0Kyz_24_Laurie	24	F	2	0	1	D	0
{name:Laurie,age:24}	Laurie	24	NA	debugH0Kyz	13	3796.00000008941	0.8	D	39	p28	0.2	F	0.2	0	debugH0Kyz_24_Laurie	26	F	1	0	1	D	0
{name:Laurie,age:24}	Laurie	24	NA	debugH0Kyz	14	1808.99999989197	0.8	D	37	p28	0.2	F	0.8	500	debugH0Kyz_24_Laurie	28	D	1	0	1	D	1
{name:Laurie,age:24}	Laurie	24	NA	debugH0Kyz	15	2173.0000001844	0.2	F	39	p28	0.8	D	0.8	0	debugH0Kyz_24_Laurie	30	D	1	0	1	D	1
{name:Laurie,age:24}	Laurie	24	NA	debugH0Kyz	16	1451.00000011735	0.2	F	37	p28	0.8	D	0.2	0	debugH0Kyz_24_Laurie	32	F	1	0	1	D	0
{name:Laurie,age:24}	Laurie	24	NA	debugH0Kyz	17	2699.00000002235	0.2	F	37	p28	0.8	D	0.2	0	debugH0Kyz_24_Laurie	34	F	1	0	1	D	0
{name:Laurie,age:24}	Laurie	24	NA	debugH0Kyz	18	2342.99999987707	0.8	D	39	p28	0.2	F	0.2	0	debugH0Kyz_24_Laurie	36	F	1	0	1	D	0
{name:Laurie,age:24}	Laurie	24	NA	debugH0Kyz	19	1179.99999993481	0.8	D	37	p28	0.2	F	0.8	500	debugH0Kyz_24_Laurie	38	D	1	0	1	D	1
{name:Laurie,age:24}	Laurie	24	NA	debugH0Kyz	20	1152.00000000186	0.8	D	37	p28	0.2	F	0.8	500	debugH0Kyz_24_Laurie	40	D	1	0	1	D	1
{name:Laurie,age:24}	Laurie	24	NA	debugH0Kyz	21	875	0.2	D	37	p82	0.8	F	0.2	0	debugH0Kyz_24_Laurie	42	D	1	0	2	D	1
{name:Laurie,age:24}	Laurie	24	NA	debugH0Kyz	22	1264.99999989755	0.2	D	37	p82	0.8	F	0.2	0	debugH0Kyz_24_Laurie	44	D	1	0	2	D	1
{name:Laurie,age:24}	Laurie	24	NA	debugH0Kyz	23	763.999999966472	0.2	D	39	p82	0.8	F	0.8	0	debugH0Kyz_24_Laurie	46	F	1	0	2	D	0
{name:Laurie,age:24}	Laurie	24	NA	debugH0Kyz	24	2690.00000017695	1	R	37	p82	0.2	D	1	500	debugH0Kyz_24_Laurie	48	R	2	1	2	D	0
{name:Laurie,age:24}	Laurie	24	NA	debugH0Kyz	25	5842.99999987707	0.2	D	37	p82	0.8	F	0.2	0	debugH0Kyz_24_Laurie	50	D	1	0	2	D	1
{name:Laurie,age:24}	Laurie	24	NA	debugH0Kyz	26	1361.00000003353	0.2	D	39	p82	0.8	F	0.8	0	debugH0Kyz_24_Laurie	52	F	1	0	2	D	0
{name:Laurie,age:24}	Laurie	24	NA	debugH0Kyz	27	4921.00000008941	0.8	F	37	p82	0.2	D	0.8	500	debugH0Kyz_24_Laurie	54	F	1	0	2	D	0
{name:Laurie,age:24}	Laurie	24	NA	debugH0Kyz	28	842.999999877065	0.8	F	37	p82	0.2	D	0.8	500	debugH0Kyz_24_Laurie	56	F	1	0	2	D	0
{name:Laurie,age:24}	Laurie	24	NA	debugH0Kyz	29	1885.9999999404	1	R	37	p82	0.8	F	1	500	debugH0Kyz_24_Laurie	58	R	2	1	2	D	0
{name:Laurie,age:24}	Laurie	24	NA	debugH0Kyz	30	1577.00000004843	0.2	D	37	p82	0.8	F	0.2	500	debugH0Kyz_24_Laurie	60	D	1	0	2	D	1
{name:Laurie,age:24}	Laurie	24	NA	debugH0Kyz	31	1632.99999991432	0.8	F	37	p82	0.2	D	0.8	0	debugH0Kyz_24_Laurie	62	F	1	0	2	D	0
{name:Laurie,age:24}	Laurie	24	NA	debugH0Kyz	32	1302.00000014156	0.8	F	37	p82	0.2	D	0.8	500	debugH0Kyz_24_Laurie	64	F	1	0	2	D	0
{name:Laurie,age:24}	Laurie	24	NA	debugH0Kyz	33	1389.99999989755	0.8	F	39	p82	0.2	D	0.2	0	debugH0Kyz_24_Laurie	66	D	1	0	2	D	1
{name:Laurie,age:24}	Laurie	24	NA	debugH0Kyz	34	884.000000078231	0.8	F	37	p82	0.2	D	0.8	500	debugH0Kyz_24_Laurie	68	F	1	0	2	D	0
{name:Laurie,age:24}	Laurie	24	NA	debugH0Kyz	35	4101.00000002421	0.2	D	37	p82	0.8	F	0.2	0	debugH0Kyz_24_Laurie	70	D	1	0	2	D	1
{name:Laurie,age:24}	Laurie	24	NA	debugH0Kyz	36	2103.00000011921	0.8	F	37	p82	0.2	D	0.8	500	debugH0Kyz_24_Laurie	72	F	1	0	2	D	0
{name:Laurie,age:24}	Laurie	24	NA	debugH0Kyz	37	1250	0.8	F	37	p82	0.2	D	0.8	500	debugH0Kyz_24_Laurie	74	F	1	0	2	D	0
{name:Laurie,age:24}	Laurie	24	NA	debugH0Kyz	38	4040.99999996834	0.2	D	37	p82	1	R	0.2	0	debugH0Kyz_24_Laurie	76	D	2	0	2	D	1
{name:Laurie,age:24}	Laurie	24	NA	debugH0Kyz	39	2245.00000011176	0.2	D	37	p82	0.8	F	0.2	0	debugH0Kyz_24_Laurie	78	D	1	0	2	D	1
{name:Laurie,age:24}	Laurie	24	NA	debugH0Kyz	40	1364.0000000596	0.8	F	37	p82	1	R	0.8	500	debugH0Kyz_24_Laurie	80	F	2	0	2	D	0
{name:Laurie,age:24}	Laurie	24	NA	debugH0Kyz	41	3585.00000019558	0.8	D	37	p28	0.2	F	0.8	500	debugH0Kyz_24_Laurie	82	D	1	0	3	D	1
{name:Laurie,age:24}	Laurie	24	NA	debugH0Kyz	42	1915.99999996834	0.2	F	37	p28	0.8	D	0.2	0	debugH0Kyz_24_Laurie	84	F	1	0	3	D	0
{name:Laurie,age:24}	Laurie	24	NA	debugH0Kyz	43	1726.9999999553	0.2	F	37	p28	0.8	D	0.2	500	debugH0Kyz_24_Laurie	86	F	1	0	3	D	0
{name:Laurie,age:24}	Laurie	24	NA	debugH0Kyz	44	1348.99999992922	0.2	F	37	p28	0.8	D	0.2	0	debugH0Kyz_24_Laurie	88	F	1	0	3	D	0
{name:Laurie,age:24}	Laurie	24	NA	debugH0Kyz	45	2486.99999996461	0.8	D	37	p28	0.2	F	0.8	500	debugH0Kyz_24_Laurie	90	D	1	0	3	D	1
{name:Laurie,age:24}	Laurie	24	NA	debugH0Kyz	46	3288.00000017509	1	R	37	p28	0.2	F	1	500	debugH0Kyz_24_Laurie	92	R	2	1	3	D	0
{name:Laurie,age:24}	Laurie	24	NA	debugH0Kyz	47	5931.00000009872	0.8	D	37	p28	0.2	F	0.8	0	debugH0Kyz_24_Laurie	94	D	1	0	3	D	1
{name:Laurie,age:24}	Laurie	24	NA	debugH0Kyz	48	1372.99999990501	0.8	D	37	p28	0.2	F	0.8	0	debugH0Kyz_24_Laurie	96	D	1	0	3	D	1
{name:Laurie,age:24}	Laurie	24	NA	debugH0Kyz	49	1295.99999985658	0.8	D	39	p28	0.2	F	0.2	500	debugH0Kyz_24_Laurie	98	F	1	0	3	D	0
{name:Laurie,age:24}	Laurie	24	NA	debugH0Kyz	50	1222.99999999814	0.2	F	37	p28	0.8	D	0.2	0	debugH0Kyz_24_Laurie	100	F	1	0	3	D	0
{name:Laurie,age:24}	Laurie	24	NA	debugH0Kyz	51	816.000000108033	0.2	F	37	p28	0.8	D	0.2	0	debugH0Kyz_24_Laurie	102	F	1	0	3	D	0
{name:Laurie,age:24}	Laurie	24	NA	debugH0Kyz	52	3088.99999991991	0.8	D	37	p28	0.2	F	0.8	500	debugH0Kyz_24_Laurie	104	D	1	0	3	D	1
{name:Laurie,age:24}	Laurie	24	NA	debugH0Kyz	53	3501.99999986216	0.8	D	37	p28	0.2	F	0.8	0	debugH0Kyz_24_Laurie	106	D	1	0	3	D	1
{name:Laurie,age:24}	Laurie	24	NA	debugH0Kyz	54	2422.99999995157	0.2	F	37	p28	1	R	0.2	0	debugH0Kyz_24_Laurie	108	F	2	0	3	D	0
{name:Laurie,age:24}	Laurie	24	NA	debugH0Kyz	55	3506.00000005215	0.2	F	37	p28	0.8	D	0.2	0	debugH0Kyz_24_Laurie	110	F	1	0	3	D	0
{name:Laurie,age:24}	Laurie	24	NA	debugH0Kyz	56	2688.00000008196	0.8	D	39	p28	1	R	1	500	debugH0Kyz_24_Laurie	112	R	2	1	3	D	0
{name:Laurie,age:24}	Laurie	24	NA	debugH0Kyz	57	1257.99999991432	0.2	F	37	p28	0.8	D	0.2	0	debugH0Kyz_24_Laurie	114	F	1	0	3	D	0
{name:Laurie,age:24}	Laurie	24	NA	debugH0Kyz	58	934.000000124797	0.2	F	37	p28	0.8	D	0.2	0	debugH0Kyz_24_Laurie	116	F	1	0	3	D	0
{name:Laurie,age:24}	Laurie	24	NA	debugH0Kyz	59	2243.99999994785	0.8	D	37	p28	0.2	F	0.8	500	debugH0Kyz_24_Laurie	118	D	1	0	3	D	1
{name:Laurie,age:24}	Laurie	24	NA	debugH0Kyz	60	2074.00000002235	1	R	39	p28	0.8	D	0.8	500	debugH0Kyz_24_Laurie	120	D	2	0	3	D	1
{name:Laurie,age:24}	Laurie	24	NA	debugH0Kyz	61	1340.00000008382	0.8	F	37	p82	0.2	D	0.8	500	debugH0Kyz_24_Laurie	122	F	1	0	4	D	0
{name:Laurie,age:24}	Laurie	24	NA	debugH0Kyz	62	1381.99999998324	0.8	F	37	p82	0.2	D	0.8	500	debugH0Kyz_24_Laurie	124	F	1	0	4	D	0
{name:Laurie,age:24}	Laurie	24	NA	debugH0Kyz	63	1515.00000013039	0.2	D	37	p82	0.8	F	0.2	0	debugH0Kyz_24_Laurie	126	D	1	0	4	D	1
{name:Laurie,age:24}	Laurie	24	NA	debugH0Kyz	64	4016.00000006147	0.8	F	37	p82	0.2	D	0.8	500	debugH0Kyz_24_Laurie	128	F	1	0	4	D	0
{name:Laurie,age:24}	Laurie	24	NA	debugH0Kyz	65	4132.99999991432	0.2	D	39	p82	0.8	F	0.8	0	debugH0Kyz_24_Laurie	130	F	1	0	4	D	0
{name:Laurie,age:24}	Laurie	24	NA	debugH0Kyz	66	4160.00000014901	0.2	D	39	p82	1	R	1	500	debugH0Kyz_24_Laurie	132	R	2	1	4	D	0
{name:Laurie,age:24}	Laurie	24	NA	debugH0Kyz	67	4181.00000009872	0.8	F	37	p82	0.2	D	0.8	0	debugH0Kyz_24_Laurie	134	F	1	0	4	D	0
{name:Laurie,age:24}	Laurie	24	NA	debugH0Kyz	68	1236.00000003353	0.2	D	37	p82	0.8	F	0.2	0	debugH0Kyz_24_Laurie	136	D	1	0	4	D	1
{name:Laurie,age:24}	Laurie	24	NA	debugH0Kyz	69	1876.00000016391	0.8	F	37	p82	0.2	D	0.8	500	debugH0Kyz_24_Laurie	138	F	1	0	4	D	0
{name:Laurie,age:24}	Laurie	24	NA	debugH0Kyz	70	1378.00000002608	1	R	39	p82	0.2	D	0.2	0	debugH0Kyz_24_Laurie	140	D	2	0	4	D	1
{name:Laurie,age:24}	Laurie	24	NA	debugH0Kyz	71	2638.99999996647	0.8	F	37	p82	0.2	D	0.8	500	debugH0Kyz_24_Laurie	142	F	1	0	4	D	0
{name:Laurie,age:24}	Laurie	24	NA	debugH0Kyz	72	3951.00000011735	0.2	D	37	p82	0.8	F	0.2	0	debugH0Kyz_24_Laurie	144	D	1	0	4	D	1
{name:Laurie,age:24}	Laurie	24	NA	debugH0Kyz	73	1779.00000009686	0.8	F	37	p82	0.2	D	0.8	500	debugH0Kyz_24_Laurie	146	F	1	0	4	D	0
{name:Laurie,age:24}	Laurie	24	NA	debugH0Kyz	74	2706.00000000559	0.2	D	39	p82	0.8	F	0.8	500	debugH0Kyz_24_Laurie	148	F	1	0	4	D	0
{name:Laurie,age:24}	Laurie	24	NA	debugH0Kyz	75	1427.99999983981	0.8	F	39	p82	1	R	1	500	debugH0Kyz_24_Laurie	150	R	2	1	4	D	0
{name:Laurie,age:24}	Laurie	24	NA	debugH0Kyz	76	2481.00000014529	0.2	D	39	p82	0.8	F	0.8	500	debugH0Kyz_24_Laurie	152	F	1	0	4	D	0
{name:Laurie,age:24}	Laurie	24	NA	debugH0Kyz	77	3550.00000004657	1	R	39	p82	0.8	F	0.8	500	debugH0Kyz_24_Laurie	154	F	2	0	4	D	0
{name:Laurie,age:24}	Laurie	24	NA	debugH0Kyz	78	4280.00000002794	0.2	D	39	p82	0.8	F	0.8	500	debugH0Kyz_24_Laurie	156	F	1	0	4	D	0
{name:Laurie,age:24}	Laurie	24	NA	debugH0Kyz	79	1476.9999999553	0.2	D	39	p82	0.8	F	0.8	500	debugH0Kyz_24_Laurie	158	F	1	0	4	D	0
{name:Laurie,age:24}	Laurie	24	NA	debugH0Kyz	80	1414.00000010617	0.8	F	37	p82	0.2	D	0.8	500	debugH0Kyz_24_Laurie	160	F	1	0	4	D	0
{name:Laurie,age:24}	Laurie	24	NA	debugH0Kyz	81	1583.00000010058	1	F	37	p11	1	D	1	500	debugH0Kyz_24_Laurie	162	F	1	0	5	D	0
{name:Laurie,age:24}	Laurie	24	NA	debugH0Kyz	82	1532.00000012293	1	F	39	p11	1	D	1	500	debugH0Kyz_24_Laurie	164	D	1	0	5	D	1
{name:Laurie,age:24}	Laurie	24	NA	debugH0Kyz	83	1015.99999982864	1	F	39	p11	1	D	1	500	debugH0Kyz_24_Laurie	166	D	1	0	5	D	1
{name:Laurie,age:24}	Laurie	24	NA	debugH0Kyz	84	972.999999998137	1	D	37	p11	1	F	1	500	debugH0Kyz_24_Laurie	168	D	1	0	5	D	1
{name:Laurie,age:24}	Laurie	24	NA	debugH0Kyz	85	3481.99999984354	1	R	39	p11	1	D	1	500	debugH0Kyz_24_Laurie	170	D	2	0	5	D	1
{name:Laurie,age:24}	Laurie	24	NA	debugH0Kyz	86	2557.0000000298	1	F	37	p11	1	D	1	500	debugH0Kyz_24_Laurie	172	F	1	0	5	D	0
{name:Laurie,age:24}	Laurie	24	NA	debugH0Kyz	87	3419.99999992549	1	D	39	p11	1	F	1	500	debugH0Kyz_24_Laurie	174	F	1	0	5	D	0
{name:Laurie,age:24}	Laurie	24	NA	debugH0Kyz	88	1486.00000003353	1	D	37	p11	1	F	1	500	debugH0Kyz_24_Laurie	176	D	1	0	5	D	1
{name:Laurie,age:24}	Laurie	24	NA	debugH0Kyz	89	2006.00000005215	1	F	39	p11	1	D	1	500	debugH0Kyz_24_Laurie	178	D	1	0	5	D	1
{name:Laurie,age:24}	Laurie	24	NA	debugH0Kyz	90	888.00000003539	1	F	37	p11	1	D	1	500	debugH0Kyz_24_Laurie	180	F	1	0	5	D	0
{name:Laurie,age:24}	Laurie	24	NA	debugH0Kyz	91	614.999999990687	1	F	37	p11	1	D	1	500	debugH0Kyz_24_Laurie	182	F	1	0	5	D	0
{name:Laurie,age:24}	Laurie	24	NA	debugH0Kyz	92	595.999999903142	1	F	39	p11	1	D	1	500	debugH0Kyz_24_Laurie	184	D	1	0	5	D	1
{name:Laurie,age:24}	Laurie	24	NA	debugH0Kyz	93	559.000000124797	1	F	39	p11	1	D	1	500	debugH0Kyz_24_Laurie	186	D	1	0	5	D	1
{name:Laurie,age:24}	Laurie	24	NA	debugH0Kyz	94	1901.00000007078	1	D	39	p11	1	F	1	500	debugH0Kyz_24_Laurie	188	F	1	0	5	D	0
{name:Laurie,age:24}	Laurie	24	NA	debugH0Kyz	95	624.000000068918	1	D	39	p11	1	F	1	500	debugH0Kyz_24_Laurie	190	F	1	0	5	D	0
{name:Laurie,age:24}	Laurie	24	NA	debugH0Kyz	96	1136.99999987148	1	F	39	p11	1	D	1	500	debugH0Kyz_24_Laurie	192	D	1	0	5	D	1
{name:Laurie,age:24}	Laurie	24	NA	debugH0Kyz	97	1807.0000000298	1	D	39	p11	1	R	1	500	debugH0Kyz_24_Laurie	194	R	2	1	5	D	0
{name:Laurie,age:24}	Laurie	24	NA	debugH0Kyz	98	1186.99999991804	1	D	39	p11	1	F	1	500	debugH0Kyz_24_Laurie	196	F	1	0	5	D	0
{name:Laurie,age:24}	Laurie	24	NA	debugH0Kyz	99	2601.00000002421	1	F	37	p11	1	R	1	500	debugH0Kyz_24_Laurie	198	F	2	0	5	D	0
{name:Laurie,age:24}	Laurie	24	NA	debugH0Kyz	100	946.999999927357	1	D	37	p11	1	F	1	500	debugH0Kyz_24_Laurie	200	D	1	0	5	D	1
{name:Laurie,age:24}	Laurie	24	NA	debugH0Kyz	101	662.000000011176	1	D	37	p11	1	F	1	500	debugH0Kyz_24_Laurie	202	D	1	0	5	D	1
{name:Laurie,age:24}	Laurie	24	NA	debugH0Kyz	102	1347.99999999814	1	D	39	p11	1	R	1	500	debugH0Kyz_24_Laurie	204	R	2	1	5	D	0
{name:Laurie,age:24}	Laurie	24	NA	debugH0Kyz	103	969.99999997206	1	D	39	p11	1	F	1	500	debugH0Kyz_24_Laurie	206	F	1	0	5	D	0
{name:Laurie,age:24}	Laurie	24	NA	debugH0Kyz	104	583.000000100583	1	D	39	p11	1	F	1	500	debugH0Kyz_24_Laurie	208	F	1	0	5	D	0
{name:Laurie,age:24}	Laurie	24	NA	debugH0Kyz	105	1098.99999992922	1	F	39	p11	1	D	1	500	debugH0Kyz_24_Laurie	210	D	1	0	5	D	1
{name:Laurie,age:24}	Laurie	24	NA	debugH0Kyz	106	1183.99999989197	1	F	39	p11	1	R	1	500	debugH0Kyz_24_Laurie	212	R	2	1	5	D	0
{name:Laurie,age:24}	Laurie	24	NA	debugH0Kyz	107	3408.9999999851	1	R	39	p11	1	D	1	500	debugH0Kyz_24_Laurie	214	D	2	0	5	D	1
{name:Laurie,age:24}	Laurie	24	NA	debugH0Kyz	108	1777.99999993294	1	D	37	p11	1	F	1	500	debugH0Kyz_24_Laurie	216	D	1	0	5	D	1
{name:Laurie,age:24}	Laurie	24	NA	debugH0Kyz	109	745.000000111759	1	D	39	p11	1	F	1	500	debugH0Kyz_24_Laurie	218	F	1	0	5	D	0
{name:Laurie,age:24}	Laurie	24	NA	debugH0Kyz	110	613.999999826774	1	D	39	p11	1	F	1	500	debugH0Kyz_24_Laurie	220	F	1	0	5	D	0
{name:Laurie,age:24}	Laurie	24	NA	debugH0Kyz	111	1899.99999990687	1	F	39	p11	1	D	1	500	debugH0Kyz_24_Laurie	222	D	1	0	5	D	1
{name:Laurie,age:24}	Laurie	24	NA	debugH0Kyz	112	608.999999938533	1	F	39	p11	1	D	1	500	debugH0Kyz_24_Laurie	224	D	1	0	5	D	1
{name:Laurie,age:24}	Laurie	24	NA	debugH0Kyz	113	1651.00000007078	1	D	39	p11	1	F	1	500	debugH0Kyz_24_Laurie	226	F	1	0	5	D	0
{name:Laurie,age:24}	Laurie	24	NA	debugH0Kyz	114	1418.00000006333	1	R	39	p11	1	F	1	500	debugH0Kyz_24_Laurie	228	F	2	0	5	D	0
{name:Laurie,age:24}	Laurie	24	NA	debugH0Kyz	115	2229.00000005029	1	F	39	p11	1	D	1	500	debugH0Kyz_24_Laurie	230	D	1	0	5	D	1
{name:Laurie,age:24}	Laurie	24	NA	debugH0Kyz	116	1084.99999996275	1	D	37	p11	1	F	1	500	debugH0Kyz_24_Laurie	232	D	1	0	5	D	1
{name:Laurie,age:24}	Laurie	24	NA	debugH0Kyz	117	1052.99999983981	1	D	39	p11	1	F	1	500	debugH0Kyz_24_Laurie	234	F	1	0	5	D	0
{name:Laurie,age:24}	Laurie	24	NA	debugH0Kyz	118	517.999999923632	1	F	39	p11	1	D	1	500	debugH0Kyz_24_Laurie	236	D	1	0	5	D	1
{name:Laurie,age:24}	Laurie	24	NA	debugH0Kyz	119	5307.99999996088	1	R	39	p11	1	F	1	500	debugH0Kyz_24_Laurie	238	F	2	0	5	D	0
{name:Laurie,age:24}	Laurie	24	NA	debugH0Kyz	120	1573.00000009127	1	F	37	p11	1	D	1	500	debugH0Kyz_24_Laurie	240	F	1	0	5	D	0
{name:Laurieround2,age:24}	Laurieround2	24	NA	debugtfOWr	1	3125	0.8	D	37	p28	1	R	0.8	500	debugtfOWr_24_Laurieround2	2	D	2	0	1	D	1
{name:Laurieround2,age:24}	Laurieround2	24	NA	debugtfOWr	2	1694.99999983236	0.2	F	39	p28	0.8	D	0.8	0	debugtfOWr_24_Laurieround2	4	D	1	0	1	D	1
{name:Laurieround2,age:24}	Laurieround2	24	NA	debugtfOWr	3	2021.00000018254	0.8	D	39	p28	0.2	F	0.2	0	debugtfOWr_24_Laurieround2	6	F	1	0	1	D	0
{name:Laurieround2,age:24}	Laurieround2	24	NA	debugtfOWr	4	1466.0000000149	0.8	D	39	p28	0.2	F	0.2	500	debugtfOWr_24_Laurieround2	8	F	1	0	1	D	0
{name:Laurieround2,age:24}	Laurieround2	24	NA	debugtfOWr	5	2006.99999998324	0.2	F	39	p28	0.8	D	0.8	500	debugtfOWr_24_Laurieround2	10	D	1	0	1	D	1
{name:Laurieround2,age:24}	Laurieround2	24	NA	debugtfOWr	6	1353.99999981746	0.8	D	37	p28	0.2	F	0.8	500	debugtfOWr_24_Laurieround2	12	D	1	0	1	D	1
{name:Laurieround2,age:24}	Laurieround2	24	NA	debugtfOWr	7	1367.00000008568	0.8	D	39	p28	0.2	F	0.2	0	debugtfOWr_24_Laurieround2	14	F	1	0	1	D	0
{name:Laurieround2,age:24}	Laurieround2	24	NA	debugtfOWr	8	1098.99999992922	0.2	F	37	p28	0.8	D	0.2	0	debugtfOWr_24_Laurieround2	16	F	1	0	1	D	0
{name:Laurieround2,age:24}	Laurieround2	24	NA	debugtfOWr	9	1391.00000006147	1	R	39	p28	0.8	D	0.8	500	debugtfOWr_24_Laurieround2	18	D	2	0	1	D	1
{name:Laurieround2,age:24}	Laurieround2	24	NA	debugtfOWr	10	888.999999966472	0.2	F	39	p28	0.8	D	0.8	500	debugtfOWr_24_Laurieround2	20	D	1	0	1	D	1
{name:Laurieround2,age:24}	Laurieround2	24	NA	debugtfOWr	11	828.000000212342	0.2	F	39	p28	0.8	D	0.8	0	debugtfOWr_24_Laurieround2	22	D	1	0	1	D	1
{name:Laurieround2,age:24}	Laurieround2	24	NA	debugtfOWr	12	2550.00000004657	1	R	39	p28	0.2	F	0.2	0	debugtfOWr_24_Laurieround2	24	F	2	0	1	D	0
{name:Laurieround2,age:24}	Laurieround2	24	NA	debugtfOWr	13	6503.99999995716	0.2	F	39	p28	0.8	D	0.8	500	debugtfOWr_24_Laurieround2	26	D	1	0	1	D	1
{name:Laurieround2,age:24}	Laurieround2	24	NA	debugtfOWr	14	9414.99999980442	0.8	D	37	p28	0.2	F	0.8	500	debugtfOWr_24_Laurieround2	28	D	1	0	1	D	1
{name:Laurieround2,age:24}	Laurieround2	24	NA	debugtfOWr	15	1774.00000020862	0.8	D	39	p28	0.2	F	0.2	500	debugtfOWr_24_Laurieround2	30	F	1	0	1	D	0
{name:Laurieround2,age:24}	Laurieround2	24	NA	debugtfOWr	16	969.99999997206	0.2	F	37	p28	0.8	D	0.2	0	debugtfOWr_24_Laurieround2	32	F	1	0	1	D	0
{name:Laurieround2,age:24}	Laurieround2	24	NA	debugtfOWr	17	2847.99999999814	0.8	D	37	p28	0.2	F	0.8	500	debugtfOWr_24_Laurieround2	34	D	1	0	1	D	1
{name:Laurieround2,age:24}	Laurieround2	24	NA	debugtfOWr	18	1138.00000003539	0.2	F	39	p28	1	R	1	500	debugtfOWr_24_Laurieround2	36	R	2	1	1	D	0
{name:Laurieround2,age:24}	Laurieround2	24	NA	debugtfOWr	19	1981.00000014529	0.8	D	37	p28	0.2	F	0.8	500	debugtfOWr_24_Laurieround2	38	D	1	0	1	D	1
{name:Laurieround2,age:24}	Laurieround2	24	NA	debugtfOWr	20	966.000000014901	0.2	F	39	p28	0.8	D	0.8	0	debugtfOWr_24_Laurieround2	40	D	1	0	1	D	1
{name:Laurieround2,age:24}	Laurieround2	24	NA	debugtfOWr	21	1929.99999993481	0.8	F	37	p82	0.2	D	0.8	500	debugtfOWr_24_Laurieround2	42	F	1	0	2	D	0
{name:Laurieround2,age:24}	Laurieround2	24	NA	debugtfOWr	22	1340.00000008382	0.2	D	39	p82	1	R	1	500	debugtfOWr_24_Laurieround2	44	R	2	1	2	D	0
{name:Laurieround2,age:24}	Laurieround2	24	NA	debugtfOWr	23	1402.99999993294	0.2	D	39	p82	0.8	F	0.8	0	debugtfOWr_24_Laurieround2	46	F	1	0	2	D	0
{name:Laurieround2,age:24}	Laurieround2	24	NA	debugtfOWr	24	1539.00000010617	0.2	D	37	p82	0.8	F	0.2	0	debugtfOWr_24_Laurieround2	48	D	1	0	2	D	1
{name:Laurieround2,age:24}	Laurieround2	24	NA	debugtfOWr	25	1244.99999987893	0.2	D	39	p82	0.8	F	0.8	500	debugtfOWr_24_Laurieround2	50	F	1	0	2	D	0
{name:Laurieround2,age:24}	Laurieround2	24	NA	debugtfOWr	26	1240.99999992177	0.8	F	37	p82	0.2	D	0.8	500	debugtfOWr_24_Laurieround2	52	F	1	0	2	D	0
{name:Laurieround2,age:24}	Laurieround2	24	NA	debugtfOWr	27	1327.99999997951	0.8	F	37	p82	0.2	D	0.8	500	debugtfOWr_24_Laurieround2	54	F	1	0	2	D	0
{name:Laurieround2,age:24}	Laurieround2	24	NA	debugtfOWr	28	987.999999895692	0.8	F	39	p82	1	R	1	500	debugtfOWr_24_Laurieround2	56	R	2	1	2	D	0
{name:Laurieround2,age:24}	Laurieround2	24	NA	debugtfOWr	29	1996.99999997392	1	R	39	p82	0.8	F	0.8	500	debugtfOWr_24_Laurieround2	58	F	2	0	2	D	0
{name:Laurieround2,age:24}	Laurieround2	24	NA	debugtfOWr	30	1006.99999998324	0.8	F	37	p82	0.2	D	0.8	500	debugtfOWr_24_Laurieround2	60	F	1	0	2	D	0
{name:Laurieround2,age:24}	Laurieround2	24	NA	debugtfOWr	31	2224.9999998603	0.2	D	37	p82	0.8	F	0.2	0	debugtfOWr_24_Laurieround2	62	D	1	0	2	D	1
{name:Laurieround2,age:24}	Laurieround2	24	NA	debugtfOWr	32	1400.0000001397	0.2	D	39	p82	0.8	F	0.8	500	debugtfOWr_24_Laurieround2	64	F	1	0	2	D	0
{name:Laurieround2,age:24}	Laurieround2	24	NA	debugtfOWr	33	1817.00000003912	0.2	D	39	p82	0.8	F	0.8	0	debugtfOWr_24_Laurieround2	66	F	1	0	2	D	0
{name:Laurieround2,age:24}	Laurieround2	24	NA	debugtfOWr	34	1870.99999981001	0.8	F	39	p82	0.2	D	0.2	0	debugtfOWr_24_Laurieround2	68	D	1	0	2	D	1
{name:Laurieround2,age:24}	Laurieround2	24	NA	debugtfOWr	35	1100.00000009313	0.2	D	37	p82	0.8	F	0.2	0	debugtfOWr_24_Laurieround2	70	D	1	0	2	D	1
{name:Laurieround2,age:24}	Laurieround2	24	NA	debugtfOWr	36	5161.00000008009	1	R	39	p82	0.2	D	0.2	0	debugtfOWr_24_Laurieround2	72	D	2	0	2	D	1
{name:Laurieround2,age:24}	Laurieround2	24	NA	debugtfOWr	37	1300.00000004657	0.8	F	39	p82	0.2	D	0.2	0	debugtfOWr_24_Laurieround2	74	D	1	0	2	D	1
{name:Laurieround2,age:24}	Laurieround2	24	NA	debugtfOWr	38	645.999999949709	0.8	F	37	p82	0.2	D	0.8	500	debugtfOWr_24_Laurieround2	76	F	1	0	2	D	0
{name:Laurieround2,age:24}	Laurieround2	24	NA	debugtfOWr	39	733.000000007451	0.8	F	37	p82	0.2	D	0.8	500	debugtfOWr_24_Laurieround2	78	F	1	0	2	D	0
{name:Laurieround2,age:24}	Laurieround2	24	NA	debugtfOWr	40	1824.00000002235	0.2	D	39	p82	0.8	F	0.8	500	debugtfOWr_24_Laurieround2	80	F	1	0	2	D	0
{name:Laurieround2,age:24}	Laurieround2	24	NA	debugtfOWr	41	1058.99999989197	0.2	F	37	p28	0.8	D	0.2	500	debugtfOWr_24_Laurieround2	82	F	1	0	3	D	0
{name:Laurieround2,age:24}	Laurieround2	24	NA	debugtfOWr	42	994.999999878928	0.8	D	39	p28	0.2	F	0.2	0	debugtfOWr_24_Laurieround2	84	F	1	0	3	D	0
{name:Laurieround2,age:24}	Laurieround2	24	NA	debugtfOWr	43	1827.00000004843	0.8	D	37	p28	0.2	F	0.8	500	debugtfOWr_24_Laurieround2	86	D	1	0	3	D	1
{name:Laurieround2,age:24}	Laurieround2	24	NA	debugtfOWr	44	2364.99999999069	0.8	D	37	p28	0.2	F	0.8	500	debugtfOWr_24_Laurieround2	88	D	1	0	3	D	1
{name:Laurieround2,age:24}	Laurieround2	24	NA	debugtfOWr	45	4051.99999990873	0.2	F	39	p28	0.8	D	0.8	500	debugtfOWr_24_Laurieround2	90	D	1	0	3	D	1
{name:Laurieround2,age:24}	Laurieround2	24	NA	debugtfOWr	46	925.000000046566	0.2	F	39	p28	0.8	D	0.8	500	debugtfOWr_24_Laurieround2	92	D	1	0	3	D	1
{name:Laurieround2,age:24}	Laurieround2	24	NA	debugtfOWr	47	791.999999899417	0.8	D	37	p28	0.2	F	0.8	500	debugtfOWr_24_Laurieround2	94	D	1	0	3	D	1
{name:Laurieround2,age:24}	Laurieround2	24	NA	debugtfOWr	48	952.999999979511	0.8	D	37	p28	0.2	F	0.8	500	debugtfOWr_24_Laurieround2	96	D	1	0	3	D	1
{name:Laurieround2,age:24}	Laurieround2	24	NA	debugtfOWr	49	935.000000055879	0.8	D	37	p28	0.2	F	0.8	500	debugtfOWr_24_Laurieround2	98	D	1	0	3	D	1
{name:Laurieround2,age:24}	Laurieround2	24	NA	debugtfOWr	50	822.999999858439	0.2	F	39	p28	0.8	D	0.8	500	debugtfOWr_24_Laurieround2	100	D	1	0	3	D	1
{name:Laurieround2,age:24}	Laurieround2	24	NA	debugtfOWr	51	915.000000037253	0.8	D	37	p28	0.2	F	0.8	500	debugtfOWr_24_Laurieround2	102	D	1	0	3	D	1
{name:Laurieround2,age:24}	Laurieround2	24	NA	debugtfOWr	52	4209.00000003166	0.2	F	39	p28	1	R	1	500	debugtfOWr_24_Laurieround2	104	R	2	1	3	D	0
{name:Laurieround2,age:24}	Laurieround2	24	NA	debugtfOWr	53	3890.00000013039	0.8	D	39	p28	1	R	1	500	debugtfOWr_24_Laurieround2	106	R	2	1	3	D	0
{name:Laurieround2,age:24}	Laurieround2	24	NA	debugtfOWr	54	1266.99999999255	0.2	F	37	p28	0.8	D	0.2	0	debugtfOWr_24_Laurieround2	108	F	1	0	3	D	0
{name:Laurieround2,age:24}	Laurieround2	24	NA	debugtfOWr	55	2345.99999990314	0.2	F	37	p28	0.8	D	0.2	0	debugtfOWr_24_Laurieround2	110	F	1	0	3	D	0
{name:Laurieround2,age:24}	Laurieround2	24	NA	debugtfOWr	56	4388.99999996647	1	R	37	p28	0.2	F	1	500	debugtfOWr_24_Laurieround2	112	R	2	1	3	D	0
{name:Laurieround2,age:24}	Laurieround2	24	NA	debugtfOWr	57	1181.00000009872	0.8	D	37	p28	0.2	F	0.8	500	debugtfOWr_24_Laurieround2	114	D	1	0	3	D	1
{name:Laurieround2,age:24}	Laurieround2	24	NA	debugtfOWr	58	888.00000003539	0.2	F	39	p28	0.8	D	0.8	500	debugtfOWr_24_Laurieround2	116	D	1	0	3	D	1
{name:Laurieround2,age:24}	Laurieround2	24	NA	debugtfOWr	59	839.000000152737	0.2	F	39	p28	0.8	D	0.8	500	debugtfOWr_24_Laurieround2	118	D	1	0	3	D	1
{name:Laurieround2,age:24}	Laurieround2	24	NA	debugtfOWr	60	3270.99999994971	1	R	37	p28	0.8	D	1	500	debugtfOWr_24_Laurieround2	120	R	2	1	3	D	0
{name:Laurieround2,age:24}	Laurieround2	24	NA	debugtfOWr	61	1259.00000007823	0.8	F	37	p82	0.2	D	0.8	0	debugtfOWr_24_Laurieround2	122	F	1	0	4	D	0
{name:Laurieround2,age:24}	Laurieround2	24	NA	debugtfOWr	62	2171.99999978766	0.2	D	39	p82	1	R	1	500	debugtfOWr_24_Laurieround2	124	R	2	1	4	D	0
{name:Laurieround2,age:24}	Laurieround2	24	NA	debugtfOWr	63	744.000000180677	0.2	D	39	p82	0.8	F	0.8	500	debugtfOWr_24_Laurieround2	126	F	1	0	4	D	0
{name:Laurieround2,age:24}	Laurieround2	24	NA	debugtfOWr	64	560.999999986961	0.2	D	39	p82	0.8	F	0.8	500	debugtfOWr_24_Laurieround2	128	F	1	0	4	D	0
{name:Laurieround2,age:24}	Laurieround2	24	NA	debugtfOWr	65	917.999999830499	0.8	F	37	p82	0.2	D	0.8	500	debugtfOWr_24_Laurieround2	130	F	1	0	4	D	0
{name:Laurieround2,age:24}	Laurieround2	24	NA	debugtfOWr	66	1169.99999992549	0.8	F	37	p82	0.2	D	0.8	500	debugtfOWr_24_Laurieround2	132	F	1	0	4	D	0
{name:Laurieround2,age:24}	Laurieround2	24	NA	debugtfOWr	67	800.000000046566	0.2	D	39	p82	0.8	F	0.8	500	debugtfOWr_24_Laurieround2	134	F	1	0	4	D	0
{name:Laurieround2,age:24}	Laurieround2	24	NA	debugtfOWr	68	1895.00000001863	1	R	37	p82	0.8	F	1	500	debugtfOWr_24_Laurieround2	136	R	2	1	4	D	0
{name:Laurieround2,age:24}	Laurieround2	24	NA	debugtfOWr	69	1069.00000013411	0.8	F	39	p82	0.2	D	0.2	500	debugtfOWr_24_Laurieround2	138	D	1	0	4	D	1
{name:Laurieround2,age:24}	Laurieround2	24	NA	debugtfOWr	70	824.000000022352	0.2	D	37	p82	0.8	F	0.2	0	debugtfOWr_24_Laurieround2	140	D	1	0	4	D	1
{name:Laurieround2,age:24}	Laurieround2	24	NA	debugtfOWr	71	1051.00000021048	0.8	F	39	p82	0.2	D	0.2	0	debugtfOWr_24_Laurieround2	142	D	1	0	4	D	1
{name:Laurieround2,age:24}	Laurieround2	24	NA	debugtfOWr	72	2022.99999981187	1	R	37	p82	0.2	D	1	500	debugtfOWr_24_Laurieround2	144	R	2	1	4	D	0
{name:Laurieround2,age:24}	Laurieround2	24	NA	debugtfOWr	73	1059.0000001248	0.8	F	37	p82	0.2	D	0.8	500	debugtfOWr_24_Laurieround2	146	F	1	0	4	D	0
{name:Laurieround2,age:24}	Laurieround2	24	NA	debugtfOWr	74	668.999999994412	0.2	D	39	p82	0.8	F	0.8	0	debugtfOWr_24_Laurieround2	148	F	1	0	4	D	0
{name:Laurieround2,age:24}	Laurieround2	24	NA	debugtfOWr	75	1352.00000018813	0.8	F	39	p82	0.2	D	0.2	0	debugtfOWr_24_Laurieround2	150	D	1	0	4	D	1
{name:Laurieround2,age:24}	Laurieround2	24	NA	debugtfOWr	76	1249.00000006892	0.2	D	39	p82	0.8	F	0.8	0	debugtfOWr_24_Laurieround2	152	F	1	0	4	D	0
{name:Laurieround2,age:24}	Laurieround2	24	NA	debugtfOWr	77	2139.0000001993	0.8	F	39	p82	1	R	1	500	debugtfOWr_24_Laurieround2	154	R	2	1	4	D	0
{name:Laurieround2,age:24}	Laurieround2	24	NA	debugtfOWr	78	834.000000031665	0.2	D	37	p82	0.8	F	0.2	0	debugtfOWr_24_Laurieround2	156	D	1	0	4	D	1
{name:Laurieround2,age:24}	Laurieround2	24	NA	debugtfOWr	79	4347.99999999814	0.2	D	39	p82	0.8	F	0.8	0	debugtfOWr_24_Laurieround2	158	F	1	0	4	D	0
{name:Laurieround2,age:24}	Laurieround2	24	NA	debugtfOWr	80	2631.00000005215	0.8	F	37	p82	0.2	D	0.8	500	debugtfOWr_24_Laurieround2	160	F	1	0	4	D	0
{name:Laurieround2,age:24}	Laurieround2	24	NA	debugtfOWr	81	498.999999836087	1	F	37	p11	1	D	1	500	debugtfOWr_24_Laurieround2	162	F	1	0	5	D	0
{name:Laurieround2,age:24}	Laurieround2	24	NA	debugtfOWr	82	1137.00000010431	1	D	39	p11	1	F	1	500	debugtfOWr_24_Laurieround2	164	F	1	0	5	D	0
{name:Laurieround2,age:24}	Laurieround2	24	NA	debugtfOWr	83	1195.99999999627	1	D	39	p11	1	F	1	500	debugtfOWr_24_Laurieround2	166	F	1	0	5	D	0
{name:Laurieround2,age:24}	Laurieround2	24	NA	debugtfOWr	84	787.000000011176	1	D	39	p11	1	F	1	500	debugtfOWr_24_Laurieround2	168	F	1	0	5	D	0
{name:Laurieround2,age:24}	Laurieround2	24	NA	debugtfOWr	85	2729.99999998137	1	F	39	p11	1	R	1	500	debugtfOWr_24_Laurieround2	170	R	2	1	5	D	0
{name:Laurieround2,age:24}	Laurieround2	24	NA	debugtfOWr	86	1407.99999982119	1	D	37	p11	1	F	1	500	debugtfOWr_24_Laurieround2	172	D	1	0	5	D	1
{name:Laurieround2,age:24}	Laurieround2	24	NA	debugtfOWr	87	530.00000002794	1	D	37	p11	1	F	1	500	debugtfOWr_24_Laurieround2	174	D	1	0	5	D	1
{name:Laurieround2,age:24}	Laurieround2	24	NA	debugtfOWr	88	783.999999985099	1	F	39	p11	1	D	1	500	debugtfOWr_24_Laurieround2	176	D	1	0	5	D	1
{name:Laurieround2,age:24}	Laurieround2	24	NA	debugtfOWr	89	662.000000011176	1	F	39	p11	1	D	1	500	debugtfOWr_24_Laurieround2	178	D	1	0	5	D	1
{name:Laurieround2,age:24}	Laurieround2	24	NA	debugtfOWr	90	837.999999988824	1	D	37	p11	1	F	1	500	debugtfOWr_24_Laurieround2	180	D	1	0	5	D	1
{name:Laurieround2,age:24}	Laurieround2	24	NA	debugtfOWr	91	729.000000050291	1	F	39	p11	1	D	1	500	debugtfOWr_24_Laurieround2	182	D	1	0	5	D	1
{name:Laurieround2,age:24}	Laurieround2	24	NA	debugtfOWr	92	570.999999996275	1	D	37	p11	1	F	1	500	debugtfOWr_24_Laurieround2	184	D	1	0	5	D	1
{name:Laurieround2,age:24}	Laurieround2	24	NA	debugtfOWr	93	2763.99999996647	1	R	37	p11	1	F	1	500	debugtfOWr_24_Laurieround2	186	R	2	1	5	D	0
{name:Laurieround2,age:24}	Laurieround2	24	NA	debugtfOWr	94	780.999999959022	1	F	37	p11	1	D	1	500	debugtfOWr_24_Laurieround2	188	F	1	0	5	D	0
{name:Laurieround2,age:24}	Laurieround2	24	NA	debugtfOWr	95	734.999999869615	1	F	37	p11	1	R	1	500	debugtfOWr_24_Laurieround2	190	F	2	0	5	D	0
{name:Laurieround2,age:24}	Laurieround2	24	NA	debugtfOWr	96	830.000000074506	1	F	37	p11	1	D	1	500	debugtfOWr_24_Laurieround2	192	F	1	0	5	D	0
{name:Laurieround2,age:24}	Laurieround2	24	NA	debugtfOWr	97	956.99999993667	1	F	37	p11	1	D	1	500	debugtfOWr_24_Laurieround2	194	F	1	0	5	D	0
{name:Laurieround2,age:24}	Laurieround2	24	NA	debugtfOWr	98	656.999999890104	1	D	39	p11	1	F	1	500	debugtfOWr_24_Laurieround2	196	F	1	0	5	D	0
{name:Laurieround2,age:24}	Laurieround2	24	NA	debugtfOWr	99	641.999999992549	1	F	37	p11	1	D	1	500	debugtfOWr_24_Laurieround2	198	F	1	0	5	D	0
{name:Laurieround2,age:24}	Laurieround2	24	NA	debugtfOWr	100	749.000000068918	1	D	39	p11	1	F	1	500	debugtfOWr_24_Laurieround2	200	F	1	0	5	D	0
{name:Laurieround2,age:24}	Laurieround2	24	NA	debugtfOWr	101	1559.0000001248	1	R	37	p11	1	F	1	500	debugtfOWr_24_Laurieround2	202	R	2	1	5	D	0
{name:Laurieround2,age:24}	Laurieround2	24	NA	debugtfOWr	102	729.999999981374	1	D	39	p11	1	F	1	500	debugtfOWr_24_Laurieround2	204	F	1	0	5	D	0
{name:Laurieround2,age:24}	Laurieround2	24	NA	debugtfOWr	103	665.000000037253	1	F	37	p11	1	D	1	500	debugtfOWr_24_Laurieround2	206	F	1	0	5	D	0
{name:Laurieround2,age:24}	Laurieround2	24	NA	debugtfOWr	104	851.000000024214	1	D	39	p11	1	F	1	500	debugtfOWr_24_Laurieround2	208	F	1	0	5	D	0
{name:Laurieround2,age:24}	Laurieround2	24	NA	debugtfOWr	105	608.000000007451	1	F	37	p11	1	D	1	500	debugtfOWr_24_Laurieround2	210	F	1	0	5	D	0
{name:Laurieround2,age:24}	Laurieround2	24	NA	debugtfOWr	106	776.000000070781	1	F	37	p11	1	D	1	500	debugtfOWr_24_Laurieround2	212	F	1	0	5	D	0
{name:Laurieround2,age:24}	Laurieround2	24	NA	debugtfOWr	107	611.000000033528	1	F	37	p11	1	D	1	500	debugtfOWr_24_Laurieround2	214	F	1	0	5	D	0
{name:Laurieround2,age:24}	Laurieround2	24	NA	debugtfOWr	108	693.99999990128	1	D	39	p11	1	F	1	500	debugtfOWr_24_Laurieround2	216	F	1	0	5	D	0
{name:Laurieround2,age:24}	Laurieround2	24	NA	debugtfOWr	109	612.999999895692	1	F	37	p11	1	D	1	500	debugtfOWr_24_Laurieround2	218	F	1	0	5	D	0
{name:Laurieround2,age:24}	Laurieround2	24	NA	debugtfOWr	110	623.999999836087	1	D	39	p11	1	F	1	500	debugtfOWr_24_Laurieround2	220	F	1	0	5	D	0
{name:Laurieround2,age:24}	Laurieround2	24	NA	debugtfOWr	111	665.999999968335	1	F	37	p11	1	D	1	500	debugtfOWr_24_Laurieround2	222	F	1	0	5	D	0
{name:Laurieround2,age:24}	Laurieround2	24	NA	debugtfOWr	112	608.999999938533	1	F	37	p11	1	D	1	500	debugtfOWr_24_Laurieround2	224	F	1	0	5	D	0
{name:Laurieround2,age:24}	Laurieround2	24	NA	debugtfOWr	113	1428.00000007264	1	D	39	p11	1	R	1	500	debugtfOWr_24_Laurieround2	226	R	2	1	5	D	0
{name:Laurieround2,age:24}	Laurieround2	24	NA	debugtfOWr	114	656.999999890104	1	F	39	p11	1	D	1	500	debugtfOWr_24_Laurieround2	228	D	1	0	5	D	1
{name:Laurieround2,age:24}	Laurieround2	24	NA	debugtfOWr	115	601.000000024214	1	D	37	p11	1	F	1	500	debugtfOWr_24_Laurieround2	230	D	1	0	5	D	1
{name:Laurieround2,age:24}	Laurieround2	24	NA	debugtfOWr	116	1518.99999985471	1	R	37	p11	1	D	1	500	debugtfOWr_24_Laurieround2	232	R	2	1	5	D	0
{name:Laurieround2,age:24}	Laurieround2	24	NA	debugtfOWr	117	1047.99999995157	1	D	37	p11	1	F	1	500	debugtfOWr_24_Laurieround2	234	D	1	0	5	D	1
{name:Laurieround2,age:24}	Laurieround2	24	NA	debugtfOWr	118	1286.00000008009	1	D	39	p11	1	R	1	500	debugtfOWr_24_Laurieround2	236	R	2	1	5	D	0
{name:Laurieround2,age:24}	Laurieround2	24	NA	debugtfOWr	119	1475.00000009313	1	R	37	p11	1	D	1	500	debugtfOWr_24_Laurieround2	238	R	2	1	5	D	0
{name:Laurieround2,age:24}	Laurieround2	24	NA	debugtfOWr	120	777.000000001863	1	D	37	p11	1	F	1	500	debugtfOWr_24_Laurieround2	240	D	1	0	5	D	1
{name:Matt,age:24,taskver:20200410.2-blk40+inst}	Matt	24	20200410.2-blk40+inst	debugFO4Cm	1	9852.75999997975	0.8	D	37	p28	0.2	F	0.8	500	debugFO4Cm_24_Matt	2	D	1	0	1	D	1
{name:Matt,age:24,taskver:20200410.2-blk40+inst}	Matt	24	20200410.2-blk40+inst	debugFO4Cm	2	1703.584999952	0.8	D	37	p28	0.2	F	0.8	500	debugFO4Cm_24_Matt	4	D	1	0	1	D	1
{name:Matt,age:24,taskver:20200410.2-blk40+inst}	Matt	24	20200410.2-blk40+inst	debugFO4Cm	3	623.230000026524	0.8	D	37	p28	0.2	F	0.8	0	debugFO4Cm_24_Matt	6	D	1	0	1	D	1
{name:Matt,age:24,taskver:20200410.2-blk40+inst}	Matt	24	20200410.2-blk40+inst	debugFO4Cm	4	2593.9800000051	1	R	37	p28	0.2	F	1	500	debugFO4Cm_24_Matt	8	R	2	1	1	D	0
{name:Matt,age:24,taskver:20200410.2-blk40+inst}	Matt	24	20200410.2-blk40+inst	debugFO4Cm	5	1067.76999996509	0.2	F	39	p28	0.8	D	0.8	500	debugFO4Cm_24_Matt	10	D	1	0	1	D	1
{name:Matt,age:24,taskver:20200410.2-blk40+inst}	Matt	24	20200410.2-blk40+inst	debugFO4Cm	6	703.420000034384	0.2	F	39	p28	0.8	D	0.8	500	debugFO4Cm_24_Matt	12	D	1	0	1	D	1
{name:Matt,age:24,taskver:20200410.2-blk40+inst}	Matt	24	20200410.2-blk40+inst	debugFO4Cm	7	559.88499999512	0.2	F	39	p28	0.8	D	0.8	0	debugFO4Cm_24_Matt	14	D	1	0	1	D	1
{name:Matt,age:24,taskver:20200410.2-blk40+inst}	Matt	24	20200410.2-blk40+inst	debugFO4Cm	8	654.240000003483	0.2	F	39	p28	0.8	D	0.8	500	debugFO4Cm_24_Matt	16	D	1	0	1	D	1
{name:Matt,age:24,taskver:20200410.2-blk40+inst}	Matt	24	20200410.2-blk40+inst	debugFO4Cm	9	960.844999994151	0.8	D	37	p28	0.2	F	0.8	500	debugFO4Cm_24_Matt	18	D	1	0	1	D	1
