subjInfo	name	age	taskver	subjID	trial	rt	block	ignP	ignCard	choiceP	choiceCard	side	sym	color	key	choice	pts	score	ses_id	abstrial	choiceType	choseHigh	choseFirst	blocknum
{name:Anna,age:27,taskver:20200413.2-rtpen+endQ}	Anna	27	20200413.2-rtpen+endQ	debugis2Bb	1	1327.99999997951	p28	0.8	D	0.2	F	NA			39	0.2	50	24	debugis2Bb_27_Anna	2	1	0	0	1
{name:Anna,age:27,taskver:20200413.2-rtpen+endQ}	Anna	27	20200413.2-rtpen+endQ	debugis2Bb	2	1022.99999981187	p28	0.8	D	0.2	F	NA			37	0.2	0	-1	debugis2Bb_27_Anna	4	1	0	0	1
{name:Anna,age:27,taskver:20200413.2-rtpen+endQ}	Anna	27	20200413.2-rtpen+endQ	debugis2Bb	3	1081.99999993667	p28	0.2	F	0.8	D	NA			37	0.8	0	-1	debugis2Bb_27_Anna	6	1	0	1	1
{name:Anna,age:27,taskver:20200413.2-rtpen+endQ}	Anna	27	20200413.2-rtpen+endQ	debugis2Bb	4	904.000000096858	p28	0.8	D	0.2	F	NA			39	0.2	50	34	debugis2Bb_27_Anna	8	1	0	0	1
{name:Anna,age:27,taskver:20200413.2-rtpen+endQ}	Anna	27	20200413.2-rtpen+endQ	debugis2Bb	5	672.999999951571	p28	0.8	D	0.2	F	NA			39	0.2	50	40	debugis2Bb_27_Anna	10	1	0	0	1
{name:Anna,age:27,taskver:20200413.2-rtpen+endQ}	Anna	27	20200413.2-rtpen+endQ	debugis2Bb	6	675.000000046566	p28	1	R	0.2	F	NA			39	0.2	0	-1	debugis2Bb_27_Anna	12	1	0	0	1
{name:Anna,age:27,taskver:20200413.2-rtpen+endQ}	Anna	27	20200413.2-rtpen+endQ	debugis2Bb	7	927.999999839813	p28	0.8	D	0.2	F	NA			39	0.2	0	-1	debugis2Bb_27_Anna	14	1	0	0	1
{name:Anna,age:27,taskver:20200413.2-rtpen+endQ}	Anna	27	20200413.2-rtpen+endQ	debugis2Bb	8	619.999999878928	p28	0.2	F	0.8	D	NA			37	0.8	50	42	debugis2Bb_27_Anna	16	1	0	1	1
{name:Anna,age:27,taskver:20200413.2-rtpen+endQ}	Anna	27	20200413.2-rtpen+endQ	debugis2Bb	9	696.999999927357	p28	0.2	F	0.8	D	NA			37	0.8	50	40	debugis2Bb_27_Anna	18	1	0	1	1
{name:Anna,age:27,taskver:20200413.2-rtpen+endQ}	Anna	27	20200413.2-rtpen+endQ	debugis2Bb	10	870.000000111759	p28	0.2	F	0.8	D	NA			39	0.8	50	35	debugis2Bb_27_Anna	20	1	0	1	1
{name:Anna,age:27,taskver:20200413.2-rtpen+endQ}	Anna	27	20200413.2-rtpen+endQ	debugis2Bb	11	1084.99999996275	p28	0.2	F	1	R	NA			39	1	50	21	debugis2Bb_27_Anna	22	2	1	0	1
{name:Anna,age:27,taskver:20200413.2-rtpen+endQ}	Anna	27	20200413.2-rtpen+endQ	debugis2Bb	12	1134.00000007823	p28	0.2	F	0.8	D	NA			39	0.8	50	29	debugis2Bb_27_Anna	24	1	0	1	1
{name:Anna,age:27,taskver:20200413.2-rtpen+endQ}	Anna	27	20200413.2-rtpen+endQ	debugis2Bb	13	617.999999783933	p28	1	R	0.8	D	NA			39	0.8	50	42	debugis2Bb_27_Anna	26	1	0	1	1
{name:Anna,age:27,taskver:20200413.2-rtpen+endQ}	Anna	27	20200413.2-rtpen+endQ	debugis2Bb	14	827.000000048429	p28	0.2	F	0.8	D	NA			37	0.8	50	36	debugis2Bb_27_Anna	28	1	0	1	1
{name:Anna,age:27,taskver:20200413.2-rtpen+endQ}	Anna	27	20200413.2-rtpen+endQ	debugis2Bb	15	780.999999959022	p28	0.2	F	0.8	D	NA			39	0.8	50	37	debugis2Bb_27_Anna	30	1	0	1	1
{name:Anna,age:27,taskver:20200413.2-rtpen+endQ}	Anna	27	20200413.2-rtpen+endQ	debugis2Bb	16	664.000000106171	p28	1	R	0.8	D	NA			37	0.8	50	40	debugis2Bb_27_Anna	32	1	0	1	1
{name:Anna,age:27,taskver:20200413.2-rtpen+endQ}	Anna	27	20200413.2-rtpen+endQ	debugis2Bb	17	716.000000014901	p28	0.2	F	0.8	D	NA			37	0.8	50	39	debugis2Bb_27_Anna	34	1	0	1	1
{name:Anna,age:27,taskver:20200413.2-rtpen+endQ}	Anna	27	20200413.2-rtpen+endQ	debugis2Bb	18	936.999999918044	p28	1	R	0.2	F	NA			37	0.2	50	34	debugis2Bb_27_Anna	36	1	0	0	1
{name:Anna,age:27,taskver:20200413.2-rtpen+endQ}	Anna	27	20200413.2-rtpen+endQ	debugis2Bb	19	1034.99999991618	p28	0.2	F	0.8	D	NA			39	0.8	50	31	debugis2Bb_27_Anna	38	1	0	1	1
{name:Anna,age:27,taskver:20200413.2-rtpen+endQ}	Anna	27	20200413.2-rtpen+endQ	debugis2Bb	20	657.999999821186	p28	0.2	F	0.8	D	NA			39	0.8	50	41	debugis2Bb_27_Anna	40	1	0	1	1
{name:Anna,age:27,taskver:20200413.2-rtpen+endQ}	Anna	27	20200413.2-rtpen+endQ	debugis2Bb	21	614.999999990687	p28	0.2	F	0.8	D	NA			39	0.8	50	42	debugis2Bb_27_Anna	42	1	0	1	1
{name:Anna,age:27,taskver:20200413.2-rtpen+endQ}	Anna	27	20200413.2-rtpen+endQ	debugis2Bb	22	615.999999921769	p28	0.2	F	0.8	D	NA			39	0.8	50	42	debugis2Bb_27_Anna	44	1	0	1	1
{name:Anna,age:27,taskver:20200413.2-rtpen+endQ}	Anna	27	20200413.2-rtpen+endQ	debugis2Bb	23	516.000000061467	p28	0.2	F	0.8	D	NA			39	0.8	50	44	debugis2Bb_27_Anna	46	1	0	1	1
{name:Anna,age:27,taskver:20200413.2-rtpen+endQ}	Anna	27	20200413.2-rtpen+endQ	debugis2Bb	24	644.000000087544	p28	0.2	F	0.8	D	NA			37	0.8	50	41	debugis2Bb_27_Anna	48	1	0	1	1
{name:Anna,age:27,taskver:20200413.2-rtpen+endQ}	Anna	27	20200413.2-rtpen+endQ	debugis2Bb	25	534.999999916181	p28	0.2	F	0.8	D	NA			39	0.8	50	44	debugis2Bb_27_Anna	50	1	0	1	1
{name:Anna,age:27,taskver:20200413.2-rtpen+endQ}	Anna	27	20200413.2-rtpen+endQ	debugis2Bb	26	513.999999966472	p28	0.2	F	0.8	D	NA			39	0.8	50	44	debugis2Bb_27_Anna	52	1	0	1	1
{name:Anna,age:27,taskver:20200413.2-rtpen+endQ}	Anna	27	20200413.2-rtpen+endQ	debugis2Bb	27	682.999999960884	p28	1	R	0.8	D	NA			39	0.8	50	40	debugis2Bb_27_Anna	54	1	0	1	1
{name:Anna,age:27,taskver:20200413.2-rtpen+endQ}	Anna	27	20200413.2-rtpen+endQ	debugis2Bb	28	572.000000160187	p28	0.2	F	0.8	D	NA			39	0.8	50	43	debugis2Bb_27_Anna	56	1	0	1	1
{name:Anna,age:27,taskver:20200413.2-rtpen+endQ}	Anna	27	20200413.2-rtpen+endQ	debugis2Bb	29	586.00000012666	p28	0.2	F	1	R	NA			37	1	50	33	debugis2Bb_27_Anna	58	2	1	0	1
{name:Anna,age:27,taskver:20200413.2-rtpen+endQ}	Anna	27	20200413.2-rtpen+endQ	debugis2Bb	30	611.000000033528	p28	0.2	F	0.8	D	NA			39	0.8	50	42	debugis2Bb_27_Anna	60	1	0	1	1
{name:Anna,age:27,taskver:20200413.2-rtpen+endQ}	Anna	27	20200413.2-rtpen+endQ	debugis2Bb	31	614.999999990687	p28	0.2	F	0.8	D	NA			39	0.8	0	-1	debugis2Bb_27_Anna	62	1	0	1	1
{name:Anna,age:27,taskver:20200413.2-rtpen+endQ}	Anna	27	20200413.2-rtpen+endQ	debugis2Bb	32	637.000000104308	p28	0.2	F	0.8	D	NA			37	0.8	50	41	debugis2Bb_27_Anna	64	1	0	1	1
{name:Anna,age:27,taskver:20200413.2-rtpen+endQ}	Anna	27	20200413.2-rtpen+endQ	debugis2Bb	33	593.000000109896	p28	0.2	F	0.8	D	NA			39	0.8	50	42	debugis2Bb_27_Anna	66	1	0	1	1
{name:Anna,age:27,taskver:20200413.2-rtpen+endQ}	Anna	27	20200413.2-rtpen+endQ	debugis2Bb	34	657.999999821186	p28	1	R	0.8	D	NA			37	0.8	0	-1	debugis2Bb_27_Anna	68	1	0	1	1
{name:Anna,age:27,taskver:20200413.2-rtpen+endQ}	Anna	27	20200413.2-rtpen+endQ	debugis2Bb	35	662.999999942258	p28	0.2	F	0.8	D	NA			37	0.8	50	40	debugis2Bb_27_Anna	70	1	0	1	1
{name:Anna,age:27,taskver:20200413.2-rtpen+endQ}	Anna	27	20200413.2-rtpen+endQ	debugis2Bb	36	602.999999886379	p28	0.2	F	0.8	D	NA			37	0.8	50	42	debugis2Bb_27_Anna	72	1	0	1	1
{name:Anna,age:27,taskver:20200413.2-rtpen+endQ}	Anna	27	20200413.2-rtpen+endQ	debugis2Bb	37	574.000000022352	p28	0.2	F	0.8	D	NA			39	0.8	0	-1	debugis2Bb_27_Anna	74	1	0	1	1
{name:Anna,age:27,taskver:20200413.2-rtpen+endQ}	Anna	27	20200413.2-rtpen+endQ	debugis2Bb	38	621.000000042841	p28	0.2	F	0.8	D	NA			37	0.8	50	41	debugis2Bb_27_Anna	76	1	0	1	1
{name:Anna,age:27,taskver:20200413.2-rtpen+endQ}	Anna	27	20200413.2-rtpen+endQ	debugis2Bb	39	567.999999970198	p28	0.2	F	0.8	D	NA			37	0.8	50	43	debugis2Bb_27_Anna	78	1	0	1	1
{name:Anna,age:27,taskver:20200413.2-rtpen+endQ}	Anna	27	20200413.2-rtpen+endQ	debugis2Bb	40	539.999999804422	p28	0.2	F	0.8	D	NA			37	0.8	50	44	debugis2Bb_27_Anna	80	1	0	1	1
{name:Anna,age:27,taskver:20200413.2-rtpen+endQ}	Anna	27	20200413.2-rtpen+endQ	debugis2Bb	41	669.999999925494	p82	0.8	F	0.2	D	NA			39	0.2	0	-1	debugis2Bb_27_Anna	82	1	0	1	2
{name:Anna,age:27,taskver:20200413.2-rtpen+endQ}	Anna	27	20200413.2-rtpen+endQ	debugis2Bb	42	610.000000102445	p82	1	R	0.2	D	NA			39	0.2	0	-1	debugis2Bb_27_Anna	84	1	0	1	2
{name:Anna,age:27,taskver:20200413.2-rtpen+endQ}	Anna	27	20200413.2-rtpen+endQ	debugis2Bb	43	853.999999817461	p82	0.8	F	0.2	D	NA			37	0.2	50	36	debugis2Bb_27_Anna	86	1	0	1	2
{name:Anna,age:27,taskver:20200413.2-rtpen+endQ}	Anna	27	20200413.2-rtpen+endQ	debugis2Bb	44	648.999999975786	p82	0.8	F	0.2	D	NA			37	0.2	0	-1	debugis2Bb_27_Anna	88	1	0	1	2
{name:Anna,age:27,taskver:20200413.2-rtpen+endQ}	Anna	27	20200413.2-rtpen+endQ	debugis2Bb	45	677.999999839813	p82	0.8	F	0.2	D	NA			39	0.2	50	40	debugis2Bb_27_Anna	90	1	0	1	2
{name:Anna,age:27,taskver:20200413.2-rtpen+endQ}	Anna	27	20200413.2-rtpen+endQ	debugis2Bb	46	717.999999877065	p82	0.8	F	0.2	D	NA			39	0.2	0	-1	debugis2Bb_27_Anna	92	1	0	1	2
{name:Anna,age:27,taskver:20200413.2-rtpen+endQ}	Anna	27	20200413.2-rtpen+endQ	debugis2Bb	47	628.999999957159	p82	0.8	F	0.2	D	NA			39	0.2	0	-1	debugis2Bb_27_Anna	94	1	0	1	2
{name:Anna,age:27,taskver:20200413.2-rtpen+endQ}	Anna	27	20200413.2-rtpen+endQ	debugis2Bb	48	597.000000067055	p82	0.8	F	0.2	D	NA			37	0.2	50	42	debugis2Bb_27_Anna	96	1	0	1	2
{name:Anna,age:27,taskver:20200413.2-rtpen+endQ}	Anna	27	20200413.2-rtpen+endQ	debugis2Bb	49	648.000000044703	p82	0.8	F	0.2	D	NA			39	0.2	50	41	debugis2Bb_27_Anna	98	1	0	1	2
{name:Anna,age:27,taskver:20200413.2-rtpen+endQ}	Anna	27	20200413.2-rtpen+endQ	debugis2Bb	50	695.999999996275	p82	1	R	0.2	D	NA			37	0.2	0	-1	debugis2Bb_27_Anna	100	1	0	1	2
{name:Anna,age:27,taskver:20200413.2-rtpen+endQ}	Anna	27	20200413.2-rtpen+endQ	debugis2Bb	51	747.999999905005	p82	0.8	F	0.2	D	NA			37	0.2	0	-1	debugis2Bb_27_Anna	102	1	0	1	2
{name:Anna,age:27,taskver:20200413.2-rtpen+endQ}	Anna	27	20200413.2-rtpen+endQ	debugis2Bb	52	598.999999929219	p82	1	R	0.2	D	NA			37	0.2	0	-1	debugis2Bb_27_Anna	104	1	0	1	2
{name:Anna,age:27,taskver:20200413.2-rtpen+endQ}	Anna	27	20200413.2-rtpen+endQ	debugis2Bb	53	885.999999940395	p82	0.8	F	0.2	D	NA			37	0.2	0	-1	debugis2Bb_27_Anna	106	1	0	1	2
{name:Anna,age:27,taskver:20200413.2-rtpen+endQ}	Anna	27	20200413.2-rtpen+endQ	debugis2Bb	54	598.999999929219	p82	0.8	F	0.2	D	NA			37	0.2	50	42	debugis2Bb_27_Anna	108	1	0	1	2
{name:Anna,age:27,taskver:20200413.2-rtpen+endQ}	Anna	27	20200413.2-rtpen+endQ	debugis2Bb	55	570.999999996275	p82	1	R	0.8	F	NA			39	0.8	0	-1	debugis2Bb_27_Anna	110	1	0	0	2
{name:Anna,age:27,taskver:20200413.2-rtpen+endQ}	Anna	27	20200413.2-rtpen+endQ	debugis2Bb	56	911.000000080094	p82	0.2	D	0.8	F	NA			37	0.8	50	34	debugis2Bb_27_Anna	112	1	0	0	2
{name:Anna,age:27,taskver:20200413.2-rtpen+endQ}	Anna	27	20200413.2-rtpen+endQ	debugis2Bb	57	967.000000178814	p82	0.8	F	0.2	D	NA			37	0.2	0	-1	debugis2Bb_27_Anna	114	1	0	1	2
{name:Anna,age:27,taskver:20200413.2-rtpen+endQ}	Anna	27	20200413.2-rtpen+endQ	debugis2Bb	58	978.000000119209	p82	0.2	D	0.8	F	NA			39	0.8	0	-1	debugis2Bb_27_Anna	116	1	0	0	2
{name:Anna,age:27,taskver:20200413.2-rtpen+endQ}	Anna	27	20200413.2-rtpen+endQ	debugis2Bb	59	596.999999834225	p82	0.8	F	0.2	D	NA			37	0.2	0	-1	debugis2Bb_27_Anna	118	1	0	1	2
{name:Anna,age:27,taskver:20200413.2-rtpen+endQ}	Anna	27	20200413.2-rtpen+endQ	debugis2Bb	60	613.000000128523	p82	0.8	F	0.2	D	NA			37	0.2	0	-1	debugis2Bb_27_Anna	120	1	0	1	2
{name:Anna,age:27,taskver:20200413.2-rtpen+endQ}	Anna	27	20200413.2-rtpen+endQ	debugis2Bb	61	1042.00000013225	p82	0.8	F	0.2	D	NA			39	0.2	50	31	debugis2Bb_27_Anna	122	1	0	1	2
{name:Anna,age:27,taskver:20200413.2-rtpen+endQ}	Anna	27	20200413.2-rtpen+endQ	debugis2Bb	62	639.999999897555	p82	0.8	F	0.2	D	NA			39	0.2	0	-1	debugis2Bb_27_Anna	124	1	0	1	2
{name:Anna,age:27,taskver:20200413.2-rtpen+endQ}	Anna	27	20200413.2-rtpen+endQ	debugis2Bb	63	557.999999960884	p82	0.8	F	0.2	D	NA			39	0.2	0	-1	debugis2Bb_27_Anna	126	1	0	1	2
{name:Anna,age:27,taskver:20200413.2-rtpen+endQ}	Anna	27	20200413.2-rtpen+endQ	debugis2Bb	64	641.000000061467	p82	0.8	F	0.2	D	NA			39	0.2	0	-1	debugis2Bb_27_Anna	128	1	0	1	2
{name:Anna,age:27,taskver:20200413.2-rtpen+endQ}	Anna	27	20200413.2-rtpen+endQ	debugis2Bb	65	570.999999996275	p82	0.2	D	0.8	F	NA			37	0.8	50	43	debugis2Bb_27_Anna	130	1	0	0	2
{name:Anna,age:27,taskver:20200413.2-rtpen+endQ}	Anna	27	20200413.2-rtpen+endQ	debugis2Bb	66	829.999999841675	p82	0.2	D	0.8	F	NA			39	0.8	50	36	debugis2Bb_27_Anna	132	1	0	0	2
{name:Anna,age:27,taskver:20200413.2-rtpen+endQ}	Anna	27	20200413.2-rtpen+endQ	debugis2Bb	67	820.000000065193	p82	0.2	D	0.8	F	NA			37	0.8	50	36	debugis2Bb_27_Anna	134	1	0	0	2
{name:Anna,age:27,taskver:20200413.2-rtpen+endQ}	Anna	27	20200413.2-rtpen+endQ	debugis2Bb	68	841.999999945983	p82	0.8	F	1	R	NA			39	1	50	27	debugis2Bb_27_Anna	136	2	1	0	2
{name:Anna,age:27,taskver:20200413.2-rtpen+endQ}	Anna	27	20200413.2-rtpen+endQ	debugis2Bb	69	756.999999983236	p82	0.8	F	0.2	D	NA			39	0.2	0	-1	debugis2Bb_27_Anna	138	1	0	1	2
{name:Anna,age:27,taskver:20200413.2-rtpen+endQ}	Anna	27	20200413.2-rtpen+endQ	debugis2Bb	70	701.000000117347	p82	1	R	0.8	F	NA			37	0.8	50	39	debugis2Bb_27_Anna	140	1	0	0	2
{name:Anna,age:27,taskver:20200413.2-rtpen+endQ}	Anna	27	20200413.2-rtpen+endQ	debugis2Bb	71	678.000000072643	p82	1	R	0.2	D	NA			39	0.2	0	-1	debugis2Bb_27_Anna	142	1	0	1	2
{name:Anna,age:27,taskver:20200413.2-rtpen+endQ}	Anna	27	20200413.2-rtpen+endQ	debugis2Bb	72	722.999999998137	p82	0.8	F	0.2	D	NA			37	0.2	0	-1	debugis2Bb_27_Anna	144	1	0	1	2
{name:Anna,age:27,taskver:20200413.2-rtpen+endQ}	Anna	27	20200413.2-rtpen+endQ	debugis2Bb	73	661.000000080094	p82	0.8	F	0.2	D	NA			37	0.2	0	-1	debugis2Bb_27_Anna	146	1	0	1	2
{name:Anna,age:27,taskver:20200413.2-rtpen+endQ}	Anna	27	20200413.2-rtpen+endQ	debugis2Bb	74	639.999999897555	p82	0.8	F	0.2	D	NA			39	0.2	0	-1	debugis2Bb_27_Anna	148	1	0	1	2
{name:Anna,age:27,taskver:20200413.2-rtpen+endQ}	Anna	27	20200413.2-rtpen+endQ	debugis2Bb	75	813.000000081956	p82	0.8	F	0.2	D	NA			37	0.2	0	-1	debugis2Bb_27_Anna	150	1	0	1	2
{name:Anna,age:27,taskver:20200413.2-rtpen+endQ}	Anna	27	20200413.2-rtpen+endQ	debugis2Bb	76	583.000000100583	p82	0.2	D	0.8	F	NA			39	0.8	50	42	debugis2Bb_27_Anna	152	1	0	0	2
{name:Anna,age:27,taskver:20200413.2-rtpen+endQ}	Anna	27	20200413.2-rtpen+endQ	debugis2Bb	77	844.000000040978	p82	0.2	D	0.8	F	NA			39	0.8	0	-1	debugis2Bb_27_Anna	154	1	0	0	2
{name:Anna,age:27,taskver:20200413.2-rtpen+endQ}	Anna	27	20200413.2-rtpen+endQ	debugis2Bb	78	652.999999932945	p82	0.2	D	0.8	F	NA			37	0.8	50	41	debugis2Bb_27_Anna	156	1	0	0	2
{name:Anna,age:27,taskver:20200413.2-rtpen+endQ}	Anna	27	20200413.2-rtpen+endQ	debugis2Bb	79	708.000000100583	p82	0.2	D	0.8	F	NA			37	0.8	0	-1	debugis2Bb_27_Anna	158	1	0	0	2
{name:Anna,age:27,taskver:20200413.2-rtpen+endQ}	Anna	27	20200413.2-rtpen+endQ	debugis2Bb	80	608.000000007451	p82	1	R	0.8	F	NA			39	0.8	50	42	debugis2Bb_27_Anna	160	1	0	0	2
{name:Anna,age:27,taskver:20200413.2-rtpen+endQ}	Anna	27	20200413.2-rtpen+endQ	debugis2Bb	81	686.000000219792	p28	0.2	F	0.8	D	NA			37	0.8	50	40	debugis2Bb_27_Anna	162	1	0	1	3
{name:Anna,age:27,taskver:20200413.2-rtpen+endQ}	Anna	27	20200413.2-rtpen+endQ	debugis2Bb	82	695.000000065193	p28	0.2	F	0.8	D	NA			39	0.8	0	-1	debugis2Bb_27_Anna	164	1	0	1	3
{name:Anna,age:27,taskver:20200413.2-rtpen+endQ}	Anna	27	20200413.2-rtpen+endQ	debugis2Bb	83	497.999999905005	p28	0.2	F	0.8	D	NA			37	0.8	50	45	debugis2Bb_27_Anna	166	1	0	1	3
{name:Anna,age:27,taskver:20200413.2-rtpen+endQ}	Anna	27	20200413.2-rtpen+endQ	debugis2Bb	84	520.999999949709	p28	0.2	F	0.8	D	NA			39	0.8	50	44	debugis2Bb_27_Anna	168	1	0	1	3
{name:Anna,age:27,taskver:20200413.2-rtpen+endQ}	Anna	27	20200413.2-rtpen+endQ	debugis2Bb	85	653.999999864027	p28	0.2	F	0.8	D	NA			37	0.8	50	41	debugis2Bb_27_Anna	170	1	0	1	3
{name:Anna,age:27,taskver:20200413.2-rtpen+endQ}	Anna	27	20200413.2-rtpen+endQ	debugis2Bb	86	812.000000150874	p28	0.2	F	0.8	D	NA			39	0.8	50	37	debugis2Bb_27_Anna	172	1	0	1	3
{name:Anna,age:27,taskver:20200413.2-rtpen+endQ}	Anna	27	20200413.2-rtpen+endQ	debugis2Bb	87	958.999999798834	p28	0.8	D	1	R	NA			39	1	50	24	debugis2Bb_27_Anna	174	2	1	0	3
{name:Anna,age:27,taskver:20200413.2-rtpen+endQ}	Anna	27	20200413.2-rtpen+endQ	debugis2Bb	88	833.000000100583	p28	0.8	D	0.2	F	NA			37	0.2	0	-1	debugis2Bb_27_Anna	176	1	0	0	3
{name:Anna,age:27,taskver:20200413.2-rtpen+endQ}	Anna	27	20200413.2-rtpen+endQ	debugis2Bb	89	622.000000206754	p28	0.8	D	0.2	F	NA			39	0.2	0	-1	debugis2Bb_27_Anna	178	1	0	0	3
{name:Anna,age:27,taskver:20200413.2-rtpen+endQ}	Anna	27	20200413.2-rtpen+endQ	debugis2Bb	90	925.000000046566	p28	0.2	F	0.8	D	NA			39	0.8	50	34	debugis2Bb_27_Anna	180	1	0	1	3
{name:Anna,age:27,taskver:20200413.2-rtpen+endQ}	Anna	27	20200413.2-rtpen+endQ	debugis2Bb	91	786.000000080094	p28	0.2	F	1	R	NA			39	1	50	28	debugis2Bb_27_Anna	182	2	1	0	3
{name:Anna,age:27,taskver:20200413.2-rtpen+endQ}	Anna	27	20200413.2-rtpen+endQ	debugis2Bb	92	964.000000152737	p28	1	R	0.2	F	NA			39	0.2	0	-1	debugis2Bb_27_Anna	184	1	0	0	3
{name:Anna,age:27,taskver:20200413.2-rtpen+endQ}	Anna	27	20200413.2-rtpen+endQ	debugis2Bb	93	912.000000011176	p28	0.8	D	0.2	F	NA			37	0.2	50	34	debugis2Bb_27_Anna	186	1	0	0	3
{name:Anna,age:27,taskver:20200413.2-rtpen+endQ}	Anna	27	20200413.2-rtpen+endQ	debugis2Bb	94	784.999999916181	p28	0.8	D	0.2	F	NA			39	0.2	0	-1	debugis2Bb_27_Anna	188	1	0	0	3
{name:Anna,age:27,taskver:20200413.2-rtpen+endQ}	Anna	27	20200413.2-rtpen+endQ	debugis2Bb	95	685.000000055879	p28	0.2	F	0.8	D	NA			37	0.8	50	40	debugis2Bb_27_Anna	190	1	0	1	3
{name:Anna,age:27,taskver:20200413.2-rtpen+endQ}	Anna	27	20200413.2-rtpen+endQ	debugis2Bb	96	650.99999983795	p28	0.2	F	0.8	D	NA			39	0.8	50	41	debugis2Bb_27_Anna	192	1	0	1	3
{name:Anna,age:27,taskver:20200413.2-rtpen+endQ}	Anna	27	20200413.2-rtpen+endQ	debugis2Bb	97	689.999999944121	p28	0.2	F	1	R	NA			37	1	50	31	debugis2Bb_27_Anna	194	2	1	0	3
{name:Anna,age:27,taskver:20200413.2-rtpen+endQ}	Anna	27	20200413.2-rtpen+endQ	debugis2Bb	98	600.000000093132	p28	0.2	F	0.8	D	NA			39	0.8	50	42	debugis2Bb_27_Anna	196	1	0	1	3
{name:Anna,age:27,taskver:20200413.2-rtpen+endQ}	Anna	27	20200413.2-rtpen+endQ	debugis2Bb	99	611.000000033528	p28	0.2	F	0.8	D	NA			37	0.8	50	42	debugis2Bb_27_Anna	198	1	0	1	3
{name:Anna,age:27,taskver:20200413.2-rtpen+endQ}	Anna	27	20200413.2-rtpen+endQ	debugis2Bb	100	598.999999929219	p28	0.2	F	0.8	D	NA			37	0.8	50	42	debugis2Bb_27_Anna	200	1	0	1	3
{name:Anna,age:27,taskver:20200413.2-rtpen+endQ}	Anna	27	20200413.2-rtpen+endQ	debugis2Bb	101	746.000000042841	p28	0.8	D	1	R	NA			39	1	50	29	debugis2Bb_27_Anna	202	2	1	0	3
{name:Anna,age:27,taskver:20200413.2-rtpen+endQ}	Anna	27	20200413.2-rtpen+endQ	debugis2Bb	102	618.000000016764	p28	0.2	F	0.8	D	NA			39	0.8	0	-1	debugis2Bb_27_Anna	204	1	0	1	3
{name:Anna,age:27,taskver:20200413.2-rtpen+endQ}	Anna	27	20200413.2-rtpen+endQ	debugis2Bb	103	517.999999923632	p28	0.2	F	0.8	D	NA			37	0.8	50	44	debugis2Bb_27_Anna	206	1	0	1	3
{name:Anna,age:27,taskver:20200413.2-rtpen+endQ}	Anna	27	20200413.2-rtpen+endQ	debugis2Bb	104	663.99999987334	p28	0.2	F	0.8	D	NA			39	0.8	50	40	debugis2Bb_27_Anna	208	1	0	1	3
{name:Anna,age:27,taskver:20200413.2-rtpen+endQ}	Anna	27	20200413.2-rtpen+endQ	debugis2Bb	105	631.000000052154	p28	0.2	F	0.8	D	NA			37	0.8	50	41	debugis2Bb_27_Anna	210	1	0	1	3
{name:Anna,age:27,taskver:20200413.2-rtpen+endQ}	Anna	27	20200413.2-rtpen+endQ	debugis2Bb	106	614.999999990687	p28	0.2	F	0.8	D	NA			37	0.8	50	42	debugis2Bb_27_Anna	212	1	0	1	3
{name:Anna,age:27,taskver:20200413.2-rtpen+endQ}	Anna	27	20200413.2-rtpen+endQ	debugis2Bb	107	628.999999957159	p28	1	R	0.2	F	NA			37	0.2	0	-1	debugis2Bb_27_Anna	214	1	0	0	3
{name:Anna,age:27,taskver:20200413.2-rtpen+endQ}	Anna	27	20200413.2-rtpen+endQ	debugis2Bb	108	611.000000033528	p28	0.2	F	0.8	D	NA			39	0.8	50	42	debugis2Bb_27_Anna	216	1	0	1	3
{name:Anna,age:27,taskver:20200413.2-rtpen+endQ}	Anna	27	20200413.2-rtpen+endQ	debugis2Bb	109	574.000000022352	p28	0.2	F	0.8	D	NA			37	0.8	0	-1	debugis2Bb_27_Anna	218	1	0	1	3
{name:Anna,age:27,taskver:20200413.2-rtpen+endQ}	Anna	27	20200413.2-rtpen+endQ	debugis2Bb	110	552.000000141561	p28	0.8	D	0.2	F	NA			39	0.2	0	-1	debugis2Bb_27_Anna	220	1	0	0	3
{name:Anna,age:27,taskver:20200413.2-rtpen+endQ}	Anna	27	20200413.2-rtpen+endQ	debugis2Bb	111	530.999999959022	p28	0.2	F	0.8	D	NA			37	0.8	50	44	debugis2Bb_27_Anna	222	1	0	1	3
{name:Anna,age:27,taskver:20200413.2-rtpen+endQ}	Anna	27	20200413.2-rtpen+endQ	debugis2Bb	112	750.999999931082	p28	0.8	D	1	R	NA			37	1	50	29	debugis2Bb_27_Anna	224	2	1	0	3
{name:Anna,age:27,taskver:20200413.2-rtpen+endQ}	Anna	27	20200413.2-rtpen+endQ	debugis2Bb	113	923.999999882653	p28	0.2	F	0.8	D	NA			39	0.8	50	34	debugis2Bb_27_Anna	226	1	0	1	3
{name:Anna,age:27,taskver:20200413.2-rtpen+endQ}	Anna	27	20200413.2-rtpen+endQ	debugis2Bb	114	713.999999919906	p28	1	R	0.8	D	NA			39	0.8	50	39	debugis2Bb_27_Anna	228	1	0	1	3
{name:Anna,age:27,taskver:20200413.2-rtpen+endQ}	Anna	27	20200413.2-rtpen+endQ	debugis2Bb	115	680.99999986589	p28	0.2	F	0.8	D	NA			39	0.8	50	40	debugis2Bb_27_Anna	230	1	0	1	3
{name:Anna,age:27,taskver:20200413.2-rtpen+endQ}	Anna	27	20200413.2-rtpen+endQ	debugis2Bb	116	588.999999919906	p28	0.2	F	0.8	D	NA			39	0.8	50	42	debugis2Bb_27_Anna	232	1	0	1	3
{name:Anna,age:27,taskver:20200413.2-rtpen+endQ}	Anna	27	20200413.2-rtpen+endQ	debugis2Bb	117	697.999999858439	p28	0.2	F	0.8	D	NA			37	0.8	0	-1	debugis2Bb_27_Anna	234	1	0	1	3
{name:Anna,age:27,taskver:20200413.2-rtpen+endQ}	Anna	27	20200413.2-rtpen+endQ	debugis2Bb	118	584.000000031665	p28	0.2	F	0.8	D	NA			39	0.8	0	-1	debugis2Bb_27_Anna	236	1	0	1	3
{name:Anna,age:27,taskver:20200413.2-rtpen+endQ}	Anna	27	20200413.2-rtpen+endQ	debugis2Bb	119	553.000000072643	p28	0.2	F	0.8	D	NA			37	0.8	50	43	debugis2Bb_27_Anna	238	1	0	1	3
{name:Anna,age:27,taskver:20200413.2-rtpen+endQ}	Anna	27	20200413.2-rtpen+endQ	debugis2Bb	120	672.999999951571	p28	0.2	F	0.8	D	NA			39	0.8	50	40	debugis2Bb_27_Anna	240	1	0	1	3
{name:Anna,age:27,taskver:20200413.2-rtpen+endQ}	Anna	27	20200413.2-rtpen+endQ	debugis2Bb	121	845.999999903142	p82	0.8	F	0.2	D	NA			37	0.2	0	-1	debugis2Bb_27_Anna	242	1	0	1	4
{name:Anna,age:27,taskver:20200413.2-rtpen+endQ}	Anna	27	20200413.2-rtpen+endQ	debugis2Bb	122	722.999999998137	p82	0.8	F	0.2	D	NA			37	0.2	0	-1	debugis2Bb_27_Anna	244	1	0	1	4
{name:Anna,age:27,taskver:20200413.2-rtpen+endQ}	Anna	27	20200413.2-rtpen+endQ	debugis2Bb	123	510.999999940395	p82	0.8	F	0.2	D	NA			39	0.2	0	-1	debugis2Bb_27_Anna	246	1	0	1	4
{name:Anna,age:27,taskver:20200413.2-rtpen+endQ}	Anna	27	20200413.2-rtpen+endQ	debugis2Bb	124	1092.99999987707	p82	0.2	D	0.8	F	NA			37	0.8	50	30	debugis2Bb_27_Anna	248	1	0	0	4
{name:Anna,age:27,taskver:20200413.2-rtpen+endQ}	Anna	27	20200413.2-rtpen+endQ	debugis2Bb	125	1146.99999988079	p82	0.2	D	0.8	F	NA			39	0.8	50	28	debugis2Bb_27_Anna	250	1	0	0	4
{name:Anna,age:27,taskver:20200413.2-rtpen+endQ}	Anna	27	20200413.2-rtpen+endQ	debugis2Bb	126	810.000000055879	p82	0.2	D	0.8	F	NA			37	0.8	0	-1	debugis2Bb_27_Anna	252	1	0	0	4
{name:Anna,age:27,taskver:20200413.2-rtpen+endQ}	Anna	27	20200413.2-rtpen+endQ	debugis2Bb	127	833.000000100583	p82	0.8	F	0.2	D	NA			39	0.2	0	-1	debugis2Bb_27_Anna	254	1	0	1	4
{name:Anna,age:27,taskver:20200413.2-rtpen+endQ}	Anna	27	20200413.2-rtpen+endQ	debugis2Bb	128	583.999999798834	p82	1	R	0.2	D	NA			37	0.2	0	-1	debugis2Bb_27_Anna	256	1	0	1	4
{name:Anna,age:27,taskver:20200413.2-rtpen+endQ}	Anna	27	20200413.2-rtpen+endQ	debugis2Bb	129	732.000000076368	p82	0.8	F	0.2	D	NA			37	0.2	0	-1	debugis2Bb_27_Anna	258	1	0	1	4
{name:Anna,age:27,taskver:20200413.2-rtpen+endQ}	Anna	27	20200413.2-rtpen+endQ	debugis2Bb	130	587.999999988824	p82	0.2	D	0.8	F	NA			39	0.8	50	42	debugis2Bb_27_Anna	260	1	0	0	4
{name:Anna,age:27,taskver:20200413.2-rtpen+endQ}	Anna	27	20200413.2-rtpen+endQ	debugis2Bb	131	722.999999998137	p82	0.2	D	0.8	F	NA			39	0.8	50	39	debugis2Bb_27_Anna	262	1	0	0	4
{name:Anna,age:27,taskver:20200413.2-rtpen+endQ}	Anna	27	20200413.2-rtpen+endQ	debugis2Bb	132	1935.99999998696	p82	0.8	F	0.2	D	NA			39	0.2	0	-1	debugis2Bb_27_Anna	264	1	0	1	4
{name:Anna,age:27,taskver:20200413.2-rtpen+endQ}	Anna	27	20200413.2-rtpen+endQ	debugis2Bb	133	568.99999990128	p82	0.8	F	0.2	D	NA			37	0.2	0	-1	debugis2Bb_27_Anna	266	1	0	1	4
{name:Anna,age:27,taskver:20200413.2-rtpen+endQ}	Anna	27	20200413.2-rtpen+endQ	debugis2Bb	134	582.999999867752	p82	0.8	F	0.2	D	NA			39	0.2	50	42	debugis2Bb_27_Anna	268	1	0	1	4
{name:Anna,age:27,taskver:20200413.2-rtpen+endQ}	Anna	27	20200413.2-rtpen+endQ	debugis2Bb	135	733.999999938533	p82	0.8	F	0.2	D	NA			39	0.2	50	39	debugis2Bb_27_Anna	270	1	0	1	4
{name:Anna,age:27,taskver:20200413.2-rtpen+endQ}	Anna	27	20200413.2-rtpen+endQ	debugis2Bb	136	813.000000081956	p82	0.8	F	1	R	NA			39	1	50	28	debugis2Bb_27_Anna	272	2	1	0	4
{name:Anna,age:27,taskver:20200413.2-rtpen+endQ}	Anna	27	20200413.2-rtpen+endQ	debugis2Bb	137	798.999999882653	p82	0.8	F	0.2	D	NA			39	0.2	0	-1	debugis2Bb_27_Anna	274	1	0	1	4
{name:Anna,age:27,taskver:20200413.2-rtpen+endQ}	Anna	27	20200413.2-rtpen+endQ	debugis2Bb	138	673.999999882653	p82	1	R	0.8	F	NA			37	0.8	50	40	debugis2Bb_27_Anna	276	1	0	0	4
{name:Anna,age:27,taskver:20200413.2-rtpen+endQ}	Anna	27	20200413.2-rtpen+endQ	debugis2Bb	139	806.999999796972	p82	0.8	F	0.2	D	NA			39	0.2	0	-1	debugis2Bb_27_Anna	278	1	0	1	4
{name:Anna,age:27,taskver:20200413.2-rtpen+endQ}	Anna	27	20200413.2-rtpen+endQ	debugis2Bb	140	1064.99999994412	p82	0.2	D	0.8	F	NA			39	0.8	50	30	debugis2Bb_27_Anna	280	1	0	0	4
{name:Anna,age:27,taskver:20200413.2-rtpen+endQ}	Anna	27	20200413.2-rtpen+endQ	debugis2Bb	141	872.999999905005	p82	0.2	D	0.8	F	NA			39	0.8	50	35	debugis2Bb_27_Anna	282	1	0	0	4
{name:Anna,age:27,taskver:20200413.2-rtpen+endQ}	Anna	27	20200413.2-rtpen+endQ	debugis2Bb	142	778.999999864027	p82	1	R	0.8	F	NA			39	0.8	50	38	debugis2Bb_27_Anna	284	1	0	0	4
{name:Anna,age:27,taskver:20200413.2-rtpen+endQ}	Anna	27	20200413.2-rtpen+endQ	debugis2Bb	143	679.999999934807	p82	0.2	D	0.8	F	NA			39	0.8	0	-1	debugis2Bb_27_Anna	286	1	0	0	4
{name:Anna,age:27,taskver:20200413.2-rtpen+endQ}	Anna	27	20200413.2-rtpen+endQ	debugis2Bb	144	648.999999975786	p82	0.2	D	0.8	F	NA			39	0.8	50	41	debugis2Bb_27_Anna	288	1	0	0	4
{name:Anna,age:27,taskver:20200413.2-rtpen+endQ}	Anna	27	20200413.2-rtpen+endQ	debugis2Bb	145	1253.99999995716	p82	0.8	F	0.2	D	NA			39	0.2	0	-1	debugis2Bb_27_Anna	290	1	0	1	4
{name:Anna,age:27,taskver:20200413.2-rtpen+endQ}	Anna	27	20200413.2-rtpen+endQ	debugis2Bb	146	770.000000018626	p82	1	R	0.2	D	NA			39	0.2	0	-1	debugis2Bb_27_Anna	292	1	0	1	4
{name:Anna,age:27,taskver:20200413.2-rtpen+endQ}	Anna	27	20200413.2-rtpen+endQ	debugis2Bb	147	800.999999977648	p82	0.2	D	0.8	F	NA			37	0.8	50	37	debugis2Bb_27_Anna	294	1	0	0	4
{name:Anna,age:27,taskver:20200413.2-rtpen+endQ}	Anna	27	20200413.2-rtpen+endQ	debugis2Bb	148	704.000000143424	p82	0.2	D	0.8	F	NA			39	0.8	50	39	debugis2Bb_27_Anna	296	1	0	0	4
{name:Anna,age:27,taskver:20200413.2-rtpen+endQ}	Anna	27	20200413.2-rtpen+endQ	debugis2Bb	149	821.999999927357	p82	0.2	D	0.8	F	NA			39	0.8	50	36	debugis2Bb_27_Anna	298	1	0	0	4
{name:Anna,age:27,taskver:20200413.2-rtpen+endQ}	Anna	27	20200413.2-rtpen+endQ	debugis2Bb	150	640.000000130385	p82	0.2	D	0.8	F	NA			39	0.8	50	41	debugis2Bb_27_Anna	300	1	0	0	4
{name:Anna,age:27,taskver:20200413.2-rtpen+endQ}	Anna	27	20200413.2-rtpen+endQ	debugis2Bb	151	543.00000006333	p82	0.2	D	0.8	F	NA			39	0.8	50	43	debugis2Bb_27_Anna	302	1	0	0	4
{name:Anna,age:27,taskver:20200413.2-rtpen+endQ}	Anna	27	20200413.2-rtpen+endQ	debugis2Bb	152	778.000000165775	p82	0.2	D	1	R	NA			37	1	50	29	debugis2Bb_27_Anna	304	2	1	0	4
{name:Anna,age:27,taskver:20200413.2-rtpen+endQ}	Anna	27	20200413.2-rtpen+endQ	debugis2Bb	153	802.000000141561	p82	0.8	F	0.2	D	NA			39	0.2	0	-1	debugis2Bb_27_Anna	306	1	0	1	4
{name:Anna,age:27,taskver:20200413.2-rtpen+endQ}	Anna	27	20200413.2-rtpen+endQ	debugis2Bb	154	668.999999994412	p82	0.2	D	0.8	F	NA			37	0.8	50	40	debugis2Bb_27_Anna	308	1	0	0	4
{name:Anna,age:27,taskver:20200413.2-rtpen+endQ}	Anna	27	20200413.2-rtpen+endQ	debugis2Bb	155	692.999999970198	p82	0.2	D	0.8	F	NA			39	0.8	50	40	debugis2Bb_27_Anna	310	1	0	0	4
{name:Anna,age:27,taskver:20200413.2-rtpen+endQ}	Anna	27	20200413.2-rtpen+endQ	debugis2Bb	156	663.000000175089	p82	0.2	D	0.8	F	NA			37	0.8	0	-1	debugis2Bb_27_Anna	312	1	0	0	4
{name:Anna,age:27,taskver:20200413.2-rtpen+endQ}	Anna	27	20200413.2-rtpen+endQ	debugis2Bb	157	1188.00000008196	p82	0.2	D	1	R	NA			39	1	50	18	debugis2Bb_27_Anna	314	2	1	0	4
{name:Anna,age:27,taskver:20200413.2-rtpen+endQ}	Anna	27	20200413.2-rtpen+endQ	debugis2Bb	158	969.99999997206	p82	0.8	F	0.2	D	NA			39	0.2	50	33	debugis2Bb_27_Anna	316	1	0	1	4
{name:Anna,age:27,taskver:20200413.2-rtpen+endQ}	Anna	27	20200413.2-rtpen+endQ	debugis2Bb	159	1307.0000000298	p82	0.8	F	1	R	NA			37	1	50	15	debugis2Bb_27_Anna	318	2	1	0	4
{name:Anna,age:27,taskver:20200413.2-rtpen+endQ}	Anna	27	20200413.2-rtpen+endQ	debugis2Bb	160	854.000000050291	p82	0.8	F	0.2	D	NA			39	0.2	0	-1	debugis2Bb_27_Anna	320	1	0	1	4
{name:Anna,age:27,taskver:20200413.2-rtpen+endQ}	Anna	27	20200413.2-rtpen+endQ	debugis2Bb	161	579.999999841675	p11	1	R	1	D	NA			37	1	50	43	debugis2Bb_27_Anna	322	1	0	1	5
{name:Anna,age:27,taskver:20200413.2-rtpen+endQ}	Anna	27	20200413.2-rtpen+endQ	debugis2Bb	162	749.000000068918	p11	1	D	1	R	NA			39	1	50	29	debugis2Bb_27_Anna	324	2	1	0	5
{name:Anna,age:27,taskver:20200413.2-rtpen+endQ}	Anna	27	20200413.2-rtpen+endQ	debugis2Bb	163	1527.99999993294	p11	1	F	1	D	NA			39	1	50	19	debugis2Bb_27_Anna	326	1	0	1	5
{name:Anna,age:27,taskver:20200413.2-rtpen+endQ}	Anna	27	20200413.2-rtpen+endQ	debugis2Bb	164	763.00000003539	p11	1	F	1	D	NA			39	1	50	38	debugis2Bb_27_Anna	328	1	0	1	5
{name:Anna,age:27,taskver:20200413.2-rtpen+endQ}	Anna	27	20200413.2-rtpen+endQ	debugis2Bb	165	760.000000009313	p11	1	F	1	D	NA			37	1	50	38	debugis2Bb_27_Anna	330	1	0	1	5
{name:Anna,age:27,taskver:20200413.2-rtpen+endQ}	Anna	27	20200413.2-rtpen+endQ	debugis2Bb	166	590.999999782071	p11	1	F	1	D	NA			39	1	50	42	debugis2Bb_27_Anna	332	1	0	1	5
{name:Anna,age:27,taskver:20200413.2-rtpen+endQ}	Anna	27	20200413.2-rtpen+endQ	debugis2Bb	167	638.999999966472	p11	1	F	1	D	NA			37	1	50	41	debugis2Bb_27_Anna	334	1	0	1	5
{name:Anna,age:27,taskver:20200413.2-rtpen+endQ}	Anna	27	20200413.2-rtpen+endQ	debugis2Bb	168	547.999999951571	p11	1	F	1	D	NA			39	1	50	43	debugis2Bb_27_Anna	336	1	0	1	5
{name:Anna,age:27,taskver:20200413.2-rtpen+endQ}	Anna	27	20200413.2-rtpen+endQ	debugis2Bb	169	610.000000102445	p11	1	F	1	D	NA			39	1	50	42	debugis2Bb_27_Anna	338	1	0	1	5
{name:Anna,age:27,taskver:20200413.2-rtpen+endQ}	Anna	27	20200413.2-rtpen+endQ	debugis2Bb	170	614.000000059605	p11	1	F	1	D	NA			39	1	50	42	debugis2Bb_27_Anna	340	1	0	1	5
{name:Anna,age:27,taskver:20200413.2-rtpen+endQ}	Anna	27	20200413.2-rtpen+endQ	debugis2Bb	171	798.999999882653	p11	1	F	1	D	NA			37	1	50	37	debugis2Bb_27_Anna	342	1	0	1	5
{name:Anna,age:27,taskver:20200413.2-rtpen+endQ}	Anna	27	20200413.2-rtpen+endQ	debugis2Bb	172	628.999999957159	p11	1	F	1	D	NA			39	1	50	41	debugis2Bb_27_Anna	344	1	0	1	5
{name:Anna,age:27,taskver:20200413.2-rtpen+endQ}	Anna	27	20200413.2-rtpen+endQ	debugis2Bb	173	550.999999977648	p11	1	F	1	D	NA			39	1	50	43	debugis2Bb_27_Anna	346	1	0	1	5
{name:Anna,age:27,taskver:20200413.2-rtpen+endQ}	Anna	27	20200413.2-rtpen+endQ	debugis2Bb	174	697.999999858439	p11	1	F	1	D	NA			37	1	50	40	debugis2Bb_27_Anna	348	1	0	1	5
{name:Anna,age:27,taskver:20200413.2-rtpen+endQ}	Anna	27	20200413.2-rtpen+endQ	debugis2Bb	175	702.999999979511	p11	1	F	1	D	NA			37	1	50	39	debugis2Bb_27_Anna	350	1	0	1	5
{name:Anna,age:27,taskver:20200413.2-rtpen+endQ}	Anna	27	20200413.2-rtpen+endQ	debugis2Bb	176	636.000000173226	p11	1	F	1	D	NA			37	1	50	41	debugis2Bb_27_Anna	352	1	0	1	5
{name:Anna,age:27,taskver:20200413.2-rtpen+endQ}	Anna	27	20200413.2-rtpen+endQ	debugis2Bb	177	682.000000029802	p11	1	F	1	D	NA			39	1	50	40	debugis2Bb_27_Anna	354	1	0	1	5
{name:Anna,age:27,taskver:20200413.2-rtpen+endQ}	Anna	27	20200413.2-rtpen+endQ	debugis2Bb	178	590.000000083819	p11	1	F	1	D	NA			37	1	50	42	debugis2Bb_27_Anna	356	1	0	1	5
{name:Anna,age:27,taskver:20200413.2-rtpen+endQ}	Anna	27	20200413.2-rtpen+endQ	debugis2Bb	179	800.999999977648	p11	1	F	1	R	NA			37	1	50	28	debugis2Bb_27_Anna	358	2	1	0	5
{name:Anna,age:27,taskver:20200413.2-rtpen+endQ}	Anna	27	20200413.2-rtpen+endQ	debugis2Bb	180	655.999999959022	p11	1	F	1	D	NA			39	1	50	41	debugis2Bb_27_Anna	360	1	0	1	5
{name:Anna,age:27,taskver:20200413.2-rtpen+endQ}	Anna	27	20200413.2-rtpen+endQ	debugis2Bb	181	526.000000070781	p11	1	F	1	D	NA			37	1	50	44	debugis2Bb_27_Anna	362	1	0	1	5
{name:Anna,age:27,taskver:20200413.2-rtpen+endQ}	Anna	27	20200413.2-rtpen+endQ	debugis2Bb	182	641.999999992549	p11	1	F	1	D	NA			37	1	50	41	debugis2Bb_27_Anna	364	1	0	1	5
{name:Anna,age:27,taskver:20200413.2-rtpen+endQ}	Anna	27	20200413.2-rtpen+endQ	debugis2Bb	183	598.999999929219	p11	1	F	1	D	NA			37	1	50	42	debugis2Bb_27_Anna	366	1	0	1	5
{name:Anna,age:27,taskver:20200413.2-rtpen+endQ}	Anna	27	20200413.2-rtpen+endQ	debugis2Bb	184	554.000000003725	p11	1	D	1	F	NA			37	1	50	43	debugis2Bb_27_Anna	368	1	0	0	5
{name:Anna,age:27,taskver:20200413.2-rtpen+endQ}	Anna	27	20200413.2-rtpen+endQ	debugis2Bb	185	621.999999973923	p11	1	F	1	D	NA			39	1	50	41	debugis2Bb_27_Anna	370	1	0	1	5
{name:Anna,age:27,taskver:20200413.2-rtpen+endQ}	Anna	27	20200413.2-rtpen+endQ	debugis2Bb	186	1037.00000001118	p11	1	F	1	D	NA			37	1	50	31	debugis2Bb_27_Anna	372	1	0	1	5
{name:Anna,age:27,taskver:20200413.2-rtpen+endQ}	Anna	27	20200413.2-rtpen+endQ	debugis2Bb	187	783.999999985099	p11	1	D	1	F	NA			37	1	50	37	debugis2Bb_27_Anna	374	1	0	0	5
{name:Anna,age:27,taskver:20200413.2-rtpen+endQ}	Anna	27	20200413.2-rtpen+endQ	debugis2Bb	188	701.000000117347	p11	1	F	1	R	NA			39	1	50	30	debugis2Bb_27_Anna	376	2	1	0	5
{name:Anna,age:27,taskver:20200413.2-rtpen+endQ}	Anna	27	20200413.2-rtpen+endQ	debugis2Bb	189	876.000000163913	p11	1	D	1	F	NA			39	1	50	35	debugis2Bb_27_Anna	378	1	0	0	5
{name:Anna,age:27,taskver:20200413.2-rtpen+endQ}	Anna	27	20200413.2-rtpen+endQ	debugis2Bb	190	692.999999970198	p11	1	F	1	R	NA			37	1	50	31	debugis2Bb_27_Anna	380	2	1	0	5
{name:Anna,age:27,taskver:20200413.2-rtpen+endQ}	Anna	27	20200413.2-rtpen+endQ	debugis2Bb	191	522.999999811873	p11	1	R	1	F	NA			39	1	50	44	debugis2Bb_27_Anna	382	1	0	0	5
{name:Anna,age:27,taskver:20200413.2-rtpen+endQ}	Anna	27	20200413.2-rtpen+endQ	debugis2Bb	192	689.000000013039	p11	1	F	1	D	NA			39	1	50	40	debugis2Bb_27_Anna	384	1	0	1	5
{name:Anna,age:27,taskver:20200413.2-rtpen+endQ}	Anna	27	20200413.2-rtpen+endQ	debugis2Bb	193	605.999999912456	p11	1	F	1	D	NA			39	1	50	42	debugis2Bb_27_Anna	386	1	0	1	5
{name:Anna,age:27,taskver:20200413.2-rtpen+endQ}	Anna	27	20200413.2-rtpen+endQ	debugis2Bb	194	763.999999966472	p11	1	F	1	R	NA			39	1	50	29	debugis2Bb_27_Anna	388	2	1	0	5
{name:Anna,age:27,taskver:20200413.2-rtpen+endQ}	Anna	27	20200413.2-rtpen+endQ	debugis2Bb	195	736.99999996461	p11	1	D	1	F	NA			39	1	50	39	debugis2Bb_27_Anna	390	1	0	0	5
{name:Anna,age:27,taskver:20200413.2-rtpen+endQ}	Anna	27	20200413.2-rtpen+endQ	debugis2Bb	196	750.999999931082	p11	1	D	1	F	NA			37	1	50	38	debugis2Bb_27_Anna	392	1	0	0	5
{name:Anna,age:27,taskver:20200413.2-rtpen+endQ}	Anna	27	20200413.2-rtpen+endQ	debugis2Bb	197	570.999999996275	p11	1	D	1	F	NA			39	1	50	43	debugis2Bb_27_Anna	394	1	0	0	5
{name:Anna,age:27,taskver:20200413.2-rtpen+endQ}	Anna	27	20200413.2-rtpen+endQ	debugis2Bb	198	597.999999998137	p11	1	D	1	F	NA			37	1	50	42	debugis2Bb_27_Anna	396	1	0	0	5
{name:Anna,age:27,taskver:20200413.2-rtpen+endQ}	Anna	27	20200413.2-rtpen+endQ	debugis2Bb	199	553.999999770895	p11	1	D	1	F	NA			39	1	50	43	debugis2Bb_27_Anna	398	1	0	0	5
{name:Anna,age:27,taskver:20200413.2-rtpen+endQ}	Anna	27	20200413.2-rtpen+endQ	debugis2Bb	200	833.999999798834	p11	1	D	1	R	NA			37	1	50	27	debugis2Bb_27_Anna	400	2	1	0	5
{name:Anna,age:27,taskver:20200413.2-rtpen+endQ}	Anna	27	20200413.2-rtpen+endQ	debugis2Bb	201	691.999999806285	p11	1	F	1	R	NA			39	1	50	31	debugis2Bb_27_Anna	402	2	1	0	5
{name:Anna,age:27,taskver:20200413.2-rtpen+endQ}	Anna	27	20200413.2-rtpen+endQ	debugis2Bb	202	685.999999986961	p11	1	D	1	F	NA			37	1	50	40	debugis2Bb_27_Anna	404	1	0	0	5
{name:Anna,age:27,taskver:20200413.2-rtpen+endQ}	Anna	27	20200413.2-rtpen+endQ	debugis2Bb	203	489.000000059605	p11	1	D	1	F	NA			39	1	50	45	debugis2Bb_27_Anna	406	1	0	0	5
{name:Anna,age:27,taskver:20200413.2-rtpen+endQ}	Anna	27	20200413.2-rtpen+endQ	debugis2Bb	204	505.000000121072	p11	1	D	1	F	NA			37	1	50	44	debugis2Bb_27_Anna	408	1	0	0	5
{name:Anna,age:27,taskver:20200413.2-rtpen+endQ}	Anna	27	20200413.2-rtpen+endQ	debugis2Bb	205	803.000000072643	p11	1	D	1	R	NA			37	1	50	28	debugis2Bb_27_Anna	410	2	1	0	5
{name:Anna,age:27,taskver:20200413.2-rtpen+endQ}	Anna	27	20200413.2-rtpen+endQ	debugis2Bb	206	780.999999959022	p11	1	D	1	F	NA			37	1	50	37	debugis2Bb_27_Anna	412	1	0	0	5
{name:Anna,age:27,taskver:20200413.2-rtpen+endQ}	Anna	27	20200413.2-rtpen+endQ	debugis2Bb	207	658.000000054017	p11	1	R	1	F	NA			37	1	50	41	debugis2Bb_27_Anna	414	1	0	0	5
{name:Anna,age:27,taskver:20200413.2-rtpen+endQ}	Anna	27	20200413.2-rtpen+endQ	debugis2Bb	208	651.000000070781	p11	1	D	1	F	NA			39	1	50	41	debugis2Bb_27_Anna	416	1	0	0	5
{name:Anna,age:27,taskver:20200413.2-rtpen+endQ}	Anna	27	20200413.2-rtpen+endQ	debugis2Bb	209	517.999999923632	p11	1	D	1	F	NA			37	1	50	44	debugis2Bb_27_Anna	418	1	0	0	5
{name:Anna,age:27,taskver:20200413.2-rtpen+endQ}	Anna	27	20200413.2-rtpen+endQ	debugis2Bb	210	704.000000143424	p11	1	D	1	F	NA			37	1	50	39	debugis2Bb_27_Anna	420	1	0	0	5
{name:Anna,age:27,taskver:20200413.2-rtpen+endQ}	Anna	27	20200413.2-rtpen+endQ	debugis2Bb	211	542.999999830499	p11	1	D	1	F	NA			37	1	50	43	debugis2Bb_27_Anna	422	1	0	0	5
{name:Anna,age:27,taskver:20200413.2-rtpen+endQ}	Anna	27	20200413.2-rtpen+endQ	debugis2Bb	212	560.000000055879	p11	1	D	1	F	NA			37	1	50	43	debugis2Bb_27_Anna	424	1	0	0	5
{name:Anna,age:27,taskver:20200413.2-rtpen+endQ}	Anna	27	20200413.2-rtpen+endQ	debugis2Bb	213	597.999999998137	p11	1	D	1	F	NA			39	1	50	42	debugis2Bb_27_Anna	426	1	0	0	5
{name:Anna,age:27,taskver:20200413.2-rtpen+endQ}	Anna	27	20200413.2-rtpen+endQ	debugis2Bb	214	637.000000104308	p11	1	D	1	F	NA			39	1	50	41	debugis2Bb_27_Anna	428	1	0	0	5
{name:Anna,age:27,taskver:20200413.2-rtpen+endQ}	Anna	27	20200413.2-rtpen+endQ	debugis2Bb	215	435.999999986961	p11	1	D	1	F	NA			39	1	50	46	debugis2Bb_27_Anna	430	1	0	0	5
{name:Anna,age:27,taskver:20200413.2-rtpen+endQ}	Anna	27	20200413.2-rtpen+endQ	debugis2Bb	216	503.000000026077	p11	1	D	1	F	NA			39	1	50	44	debugis2Bb_27_Anna	432	1	0	0	5
{name:Anna,age:27,taskver:20200413.2-rtpen+endQ}	Anna	27	20200413.2-rtpen+endQ	debugis2Bb	217	419.999999925494	p11	1	F	1	D	NA			39	1	50	47	debugis2Bb_27_Anna	434	1	0	1	5
{name:Anna,age:27,taskver:20200413.2-rtpen+endQ}	Anna	27	20200413.2-rtpen+endQ	debugis2Bb	218	749.000000068918	p11	1	D	1	R	NA			37	1	50	29	debugis2Bb_27_Anna	436	2	1	0	5
{name:Anna,age:27,taskver:20200413.2-rtpen+endQ}	Anna	27	20200413.2-rtpen+endQ	debugis2Bb	219	643.000000156462	p11	1	F	1	D	NA			39	1	50	41	debugis2Bb_27_Anna	438	1	0	1	5
{name:Anna,age:27,taskver:20200413.2-rtpen+endQ}	Anna	27	20200413.2-rtpen+endQ	debugis2Bb	220	614.999999990687	p11	1	F	1	D	NA			39	1	50	42	debugis2Bb_27_Anna	440	1	0	1	5
{name:Anna,age:27,taskver:20200413.2-rtpen+endQ}	Anna	27	20200413.2-rtpen+endQ	debugis2Bb	221	473.999999929219	p11	1	F	1	D	NA			39	1	50	45	debugis2Bb_27_Anna	442	1	0	1	5
{name:Anna,age:27,taskver:20200413.2-rtpen+endQ}	Anna	27	20200413.2-rtpen+endQ	debugis2Bb	222	964.999999850988	p11	1	D	1	F	NA			39	1	50	33	debugis2Bb_27_Anna	444	1	0	0	5
{name:Anna,age:27,taskver:20200413.2-rtpen+endQ}	Anna	27	20200413.2-rtpen+endQ	debugis2Bb	223	824.000000022352	p11	1	D	1	F	NA			39	1	50	36	debugis2Bb_27_Anna	446	1	0	0	5
{name:Anna,age:27,taskver:20200413.2-rtpen+endQ}	Anna	27	20200413.2-rtpen+endQ	debugis2Bb	224	571.999999927357	p11	1	D	1	F	NA			39	1	50	43	debugis2Bb_27_Anna	448	1	0	0	5
{name:Anna,age:27,taskver:20200413.2-rtpen+endQ}	Anna	27	20200413.2-rtpen+endQ	debugis2Bb	225	638.999999966472	p11	1	F	1	R	NA			37	1	50	32	debugis2Bb_27_Anna	450	2	1	0	5
{name:Anna,age:27,taskver:20200413.2-rtpen+endQ}	Anna	27	20200413.2-rtpen+endQ	debugis2Bb	226	516.000000061467	p11	1	D	1	F	NA			39	1	50	44	debugis2Bb_27_Anna	452	1	0	0	5
{name:Anna,age:27,taskver:20200413.2-rtpen+endQ}	Anna	27	20200413.2-rtpen+endQ	debugis2Bb	227	597.000000067055	p11	1	R	1	D	NA			37	1	50	42	debugis2Bb_27_Anna	454	1	0	1	5
{name:Anna,age:27,taskver:20200413.2-rtpen+endQ}	Anna	27	20200413.2-rtpen+endQ	debugis2Bb	228	705.000000074506	p11	1	D	1	F	NA			39	1	50	39	debugis2Bb_27_Anna	456	1	0	0	5
{name:Anna,age:27,taskver:20200413.2-rtpen+endQ}	Anna	27	20200413.2-rtpen+endQ	debugis2Bb	229	479.999999981374	p11	1	F	1	D	NA			37	1	50	45	debugis2Bb_27_Anna	458	1	0	1	5
{name:Anna,age:27,taskver:20200413.2-rtpen+endQ}	Anna	27	20200413.2-rtpen+endQ	debugis2Bb	230	727.999999886379	p11	1	D	1	R	NA			39	1	50	30	debugis2Bb_27_Anna	460	2	1	0	5
{name:Anna,age:27,taskver:20200413.2-rtpen+endQ}	Anna	27	20200413.2-rtpen+endQ	debugis2Bb	231	558.999999891967	p11	1	D	1	F	NA			39	1	50	43	debugis2Bb_27_Anna	462	1	0	0	5
{name:Anna,age:27,taskver:20200413.2-rtpen+endQ}	Anna	27	20200413.2-rtpen+endQ	debugis2Bb	232	820.000000065193	p11	1	D	1	F	NA			39	1	50	36	debugis2Bb_27_Anna	464	1	0	0	5
{name:Anna,age:27,taskver:20200413.2-rtpen+endQ}	Anna	27	20200413.2-rtpen+endQ	debugis2Bb	233	714.999999850988	p11	1	D	1	F	NA			37	1	50	39	debugis2Bb_27_Anna	466	1	0	0	5
{name:Anna,age:27,taskver:20200413.2-rtpen+endQ}	Anna	27	20200413.2-rtpen+endQ	debugis2Bb	234	665.000000037253	p11	1	D	1	F	NA			39	1	50	40	debugis2Bb_27_Anna	468	1	0	0	5
{name:Anna,age:27,taskver:20200413.2-rtpen+endQ}	Anna	27	20200413.2-rtpen+endQ	debugis2Bb	235	644.000000087544	p11	1	D	1	F	NA			39	1	50	41	debugis2Bb_27_Anna	470	1	0	0	5
{name:Anna,age:27,taskver:20200413.2-rtpen+endQ}	Anna	27	20200413.2-rtpen+endQ	debugis2Bb	236	481.999999843538	p11	1	F	1	D	NA			39	1	50	45	debugis2Bb_27_Anna	472	1	0	1	5
{name:Anna,age:27,taskver:20200413.2-rtpen+endQ}	Anna	27	20200413.2-rtpen+endQ	debugis2Bb	237	1090.00000008382	p11	1	R	1	D	NA			39	1	50	30	debugis2Bb_27_Anna	474	1	0	1	5
{name:Anna,age:27,taskver:20200413.2-rtpen+endQ}	Anna	27	20200413.2-rtpen+endQ	debugis2Bb	238	630.000000121072	p11	1	F	1	D	NA			39	1	50	41	debugis2Bb_27_Anna	476	1	0	1	5
{name:Anna,age:27,taskver:20200413.2-rtpen+endQ}	Anna	27	20200413.2-rtpen+endQ	debugis2Bb	239	696.999999927357	p11	1	F	1	D	NA			39	1	50	40	debugis2Bb_27_Anna	478	1	0	1	5
{name:Anna,age:27,taskver:20200413.2-rtpen+endQ}	Anna	27	20200413.2-rtpen+endQ	debugis2Bb	240	550.000000046566	p11	1	D	1	F	NA			39	1	50	43	debugis2Bb_27_Anna	480	1	0	0	5
{name:Anna2,age:27,taskver:20200420.1-noRTbar}	Anna2	27	20200420.1-noRTbar	debugYI7DH	1	576.355000026524	p11	1	D	1	F	NA	✿		37	1	50	43	debugYI7DH_27_Anna2	322	1	0	0	1
{name:Anna2,age:27,taskver:20200420.1-noRTbar}	Anna2	27	20200420.1-noRTbar	debugYI7DH	2	888.464999967255	p11	1	D	1	F	NA	✿		39	1	50	35	debugYI7DH_27_Anna2	324	1	0	0	1
{name:Anna2,age:27,taskver:20200420.1-noRTbar}	Anna2	27	20200420.1-noRTbar	debugYI7DH	3	804.260000004433	p11	1	F	1	D	NA	❖		37	1	50	37	debugYI7DH_27_Anna2	326	1	0	1	1
{name:Anna2,age:27,taskver:20200420.1-noRTbar}	Anna2	27	20200420.1-noRTbar	debugYI7DH	4	610.945000022184	p11	1	D	1	F	NA	✿		39	1	50	42	debugYI7DH_27_Anna2	328	1	0	0	1
{name:Anna2,age:27,taskver:20200420.1-noRTbar}	Anna2	27	20200420.1-noRTbar	debugYI7DH	5	483.524999988731	p11	1	D	1	F	NA	✿		37	1	50	45	debugYI7DH_27_Anna2	330	1	0	0	1
{name:Anna2,age:27,taskver:20200420.1-noRTbar}	Anna2	27	20200420.1-noRTbar	debugYI7DH	6	659.749999991618	p11	1	F	1	R	NA	✢		39	1	50	32	debugYI7DH_27_Anna2	332	2	1	0	1
{name:Anna2,age:27,taskver:20200420.1-noRTbar}	Anna2	27	20200420.1-noRTbar	debugYI7DH	7	643.455000012182	p11	1	F	1	D	NA	❖		37	1	50	41	debugYI7DH_27_Anna2	334	1	0	1	1
{name:Anna2,age:27,taskver:20200420.1-noRTbar}	Anna2	27	20200420.1-noRTbar	debugYI7DH	8	468.845000024885	p11	1	D	1	F	NA	✿		39	1	50	45	debugYI7DH_27_Anna2	336	1	0	0	1
{name:Anna2,age:27,taskver:20200420.1-noRTbar}	Anna2	27	20200420.1-noRTbar	debugYI7DH	9	423.194999981206	p11	1	D	1	F	NA	✿		37	1	50	46	debugYI7DH_27_Anna2	338	1	0	0	1
{name:Anna2,age:27,taskver:20200420.1-noRTbar}	Anna2	27	20200420.1-noRTbar	debugYI7DH	10	552.65500000678	p11	1	F	1	D	NA	❖		39	1	50	43	debugYI7DH_27_Anna2	340	1	0	1	1
{name:Anna2,age:27,taskver:20200420.1-noRTbar}	Anna2	27	20200420.1-noRTbar	debugYI7DH	11	547.970000014175	p11	1	F	1	D	NA	❖		37	1	50	43	debugYI7DH_27_Anna2	342	1	0	1	1
{name:Anna2,age:27,taskver:20200420.1-noRTbar}	Anna2	27	20200420.1-noRTbar	debugYI7DH	12	391.264999983832	p11	1	F	1	D	NA	❖		39	1	50	47	debugYI7DH_27_Anna2	344	1	0	1	1
{name:Anna2,age:27,taskver:20200420.1-noRTbar}	Anna2	27	20200420.1-noRTbar	debugYI7DH	13	585.189999954309	p11	1	F	1	D	NA	❖		37	1	50	42	debugYI7DH_27_Anna2	346	1	0	1	1
{name:Anna2,age:27,taskver:20200420.1-noRTbar}	Anna2	27	20200420.1-noRTbar	debugYI7DH	14	831.329999957234	p11	1	F	1	D	NA	❖		37	1	50	36	debugYI7DH_27_Anna2	348	1	0	1	1
{name:Anna2,age:27,taskver:20200420.1-noRTbar}	Anna2	27	20200420.1-noRTbar	debugYI7DH	15	503.684999945108	p11	1	F	1	D	NA	❖		37	1	50	44	debugYI7DH_27_Anna2	350	1	0	1	1
{name:Anna2,age:27,taskver:20200420.1-noRTbar}	Anna2	27	20200420.1-noRTbar	debugYI7DH	16	680.524999974295	p11	1	F	1	R	NA	✢		37	1	50	31	debugYI7DH_27_Anna2	352	2	1	0	1
{name:Anna2,age:27,taskver:20200420.1-noRTbar}	Anna2	27	20200420.1-noRTbar	debugYI7DH	17	668.319999997038	p11	1	R	1	D	NA	❖		37	1	50	40	debugYI7DH_27_Anna2	354	1	0	1	1
{name:Anna2,age:27,taskver:20200420.1-noRTbar}	Anna2	27	20200420.1-noRTbar	debugYI7DH	18	948.745000001509	p11	1	F	1	D	NA	❖		37	1	50	33	debugYI7DH_27_Anna2	356	1	0	1	1
{name:Anna2,age:27,taskver:20200420.1-noRTbar}	Anna2	27	20200420.1-noRTbar	debugYI7DH	19	979.909999994561	p11	1	F	1	D	NA	❖		39	1	50	33	debugYI7DH_27_Anna2	358	1	0	1	1
{name:Anna2,age:27,taskver:20200420.1-noRTbar}	Anna2	27	20200420.1-noRTbar	debugYI7DH	20	1160.80500005046	p11	1	F	1	D	NA	❖		37	1	50	28	debugYI7DH_27_Anna2	360	1	0	1	1
{name:Anna2,age:27,taskver:20200420.1-noRTbar}	Anna2	27	20200420.1-noRTbar	debugYI7DH	21	1106.46500001894	p11	1	F	1	R	NA	✢		39	1	50	20	debugYI7DH_27_Anna2	362	2	1	0	1
{name:Anna2,age:27,taskver:20200420.1-noRTbar}	Anna2	27	20200420.1-noRTbar	debugYI7DH	22	639.324999996461	p11	1	D	1	R	NA	✢		37	1	50	32	debugYI7DH_27_Anna2	364	2	1	0	1
{name:Anna2,age:27,taskver:20200420.1-noRTbar}	Anna2	27	20200420.1-noRTbar	debugYI7DH	23	726.764999970328	p11	1	F	1	R	NA	✢		39	1	50	30	debugYI7DH_27_Anna2	366	2	1	0	1
{name:Anna2,age:27,taskver:20200420.1-noRTbar}	Anna2	27	20200420.1-noRTbar	debugYI7DH	24	948.689999990165	p11	1	F	1	D	NA	❖		39	1	50	33	debugYI7DH_27_Anna2	368	1	0	1	1
{name:Anna2,age:27,taskver:20200420.1-noRTbar}	Anna2	27	20200420.1-noRTbar	debugYI7DH	25	962.505000003148	p11	1	F	1	D	NA	❖		37	1	50	33	debugYI7DH_27_Anna2	370	1	0	1	1
{name:Anna2,age:27,taskver:20200420.1-noRTbar}	Anna2	27	20200420.1-noRTbar	debugYI7DH	26	1013.10999999987	p11	1	F	1	D	NA	❖		39	1	50	32	debugYI7DH_27_Anna2	372	1	0	1	1
{name:Anna2,age:27,taskver:20200420.1-noRTbar}	Anna2	27	20200420.1-noRTbar	debugYI7DH	27	572.485000011511	p11	1	F	1	D	NA	❖		39	1	50	43	debugYI7DH_27_Anna2	374	1	0	1	1
{name:Anna2,age:27,taskver:20200420.1-noRTbar}	Anna2	27	20200420.1-noRTbar	debugYI7DH	28	701.119999983348	p11	1	D	1	F	NA	✿		39	1	50	39	debugYI7DH_27_Anna2	376	1	0	0	1
{name:Anna2,age:27,taskver:20200420.1-noRTbar}	Anna2	27	20200420.1-noRTbar	debugYI7DH	29	720.050000003539	p11	1	D	1	R	NA	✢		37	1	50	30	debugYI7DH_27_Anna2	378	2	1	0	1
{name:Anna2,age:27,taskver:20200420.1-noRTbar}	Anna2	27	20200420.1-noRTbar	debugYI7DH	30	848.799999977928	p11	1	D	1	F	NA	✿		37	1	50	36	debugYI7DH_27_Anna2	380	1	0	0	1
{name:Anna2,age:27,taskver:20200420.1-noRTbar}	Anna2	27	20200420.1-noRTbar	debugYI7DH	31	817.265000019688	p11	1	D	1	F	NA	✿		39	1	50	37	debugYI7DH_27_Anna2	382	1	0	0	1
{name:Anna2,age:27,taskver:20200420.1-noRTbar}	Anna2	27	20200420.1-noRTbar	debugYI7DH	32	575.199999962933	p11	1	D	1	F	NA	✿		37	1	50	43	debugYI7DH_27_Anna2	384	1	0	0	1
{name:Anna2,age:27,taskver:20200420.1-noRTbar}	Anna2	27	20200420.1-noRTbar	debugYI7DH	33	681.845000013709	p11	1	D	1	R	NA	✢		37	1	50	31	debugYI7DH_27_Anna2	386	2	1	0	1
{name:Anna2,age:27,taskver:20200420.1-noRTbar}	Anna2	27	20200420.1-noRTbar	debugYI7DH	34	532.850000017788	p11	1	F	1	D	NA	❖		37	1	50	44	debugYI7DH_27_Anna2	388	1	0	1	1
{name:Anna2,age:27,taskver:20200420.1-noRTbar}	Anna2	27	20200420.1-noRTbar	debugYI7DH	35	467.449999996461	p11	1	F	1	D	NA	❖		37	1	50	45	debugYI7DH_27_Anna2	390	1	0	1	1
{name:Anna2,age:27,taskver:20200420.1-noRTbar}	Anna2	27	20200420.1-noRTbar	debugYI7DH	36	419.910000055097	p11	1	F	1	D	NA	❖		37	1	50	47	debugYI7DH_27_Anna2	392	1	0	1	1
{name:Anna2,age:27,taskver:20200420.1-noRTbar}	Anna2	27	20200420.1-noRTbar	debugYI7DH	37	856.990000000224	p11	1	F	1	D	NA	❖		39	1	50	36	debugYI7DH_27_Anna2	394	1	0	1	1
{name:Anna2,age:27,taskver:20200420.1-noRTbar}	Anna2	27	20200420.1-noRTbar	debugYI7DH	38	503.230000031181	p11	1	R	1	F	NA	✿		37	1	50	44	debugYI7DH_27_Anna2	396	1	0	0	1
{name:Anna2,age:27,taskver:20200420.1-noRTbar}	Anna2	27	20200420.1-noRTbar	debugYI7DH	39	423.009999969508	p11	1	F	1	D	NA	❖		39	1	50	46	debugYI7DH_27_Anna2	398	1	0	1	1
{name:Anna2,age:27,taskver:20200420.1-noRTbar}	Anna2	27	20200420.1-noRTbar	debugYI7DH	40	529.755000025034	p11	1	F	1	D	NA	❖		39	1	50	44	debugYI7DH_27_Anna2	400	1	0	1	1
{name:Anna2,age:27,taskver:20200420.1-noRTbar}	Anna2	27	20200420.1-noRTbar	debugYI7DH	41	563.770000007935	p11	1	D	1	F	NA	✿		37	1	50	43	debugYI7DH_27_Anna2	402	1	0	0	1
{name:Anna2,age:27,taskver:20200420.1-noRTbar}	Anna2	27	20200420.1-noRTbar	debugYI7DH	42	483.334999997169	p11	1	F	1	D	NA	❖		37	1	50	45	debugYI7DH_27_Anna2	404	1	0	1	1
{name:Anna2,age:27,taskver:20200420.1-noRTbar}	Anna2	27	20200420.1-noRTbar	debugYI7DH	43	720.195000001695	p11	1	D	1	R	NA	✢		39	1	50	30	debugYI7DH_27_Anna2	406	2	1	0	1
{name:Anna2,age:27,taskver:20200420.1-noRTbar}	Anna2	27	20200420.1-noRTbar	debugYI7DH	44	449.774999986403	p11	1	F	1	D	NA	❖		37	1	50	46	debugYI7DH_27_Anna2	408	1	0	1	1
{name:Anna2,age:27,taskver:20200420.1-noRTbar}	Anna2	27	20200420.1-noRTbar	debugYI7DH	45	658.820000011474	p11	1	D	1	F	NA	✿		37	1	50	41	debugYI7DH_27_Anna2	410	1	0	0	1
{name:Anna2,age:27,taskver:20200420.1-noRTbar}	Anna2	27	20200420.1-noRTbar	debugYI7DH	46	856.069999979809	p11	1	F	1	R	NA	✢		37	1	50	27	debugYI7DH_27_Anna2	412	2	1	0	1
{name:Anna2,age:27,taskver:20200420.1-noRTbar}	Anna2	27	20200420.1-noRTbar	debugYI7DH	47	1127.83499999205	p11	1	D	1	F	NA	✿		37	1	50	29	debugYI7DH_27_Anna2	414	1	0	0	1
{name:Anna2,age:27,taskver:20200420.1-noRTbar}	Anna2	27	20200420.1-noRTbar	debugYI7DH	48	456.83999999892	p11	1	F	1	D	NA	❖		37	1	50	46	debugYI7DH_27_Anna2	416	1	0	1	1
{name:Anna2,age:27,taskver:20200420.1-noRTbar}	Anna2	27	20200420.1-noRTbar	debugYI7DH	49	607.014999957755	p11	1	D	1	R	NA	✢		39	1	50	33	debugYI7DH_27_Anna2	418	2	1	0	1
{name:Anna2,age:27,taskver:20200420.1-noRTbar}	Anna2	27	20200420.1-noRTbar	debugYI7DH	50	566.974999965169	p11	1	F	1	D	NA	❖		37	1	50	43	debugYI7DH_27_Anna2	420	1	0	1	1
{name:Anna2,age:27,taskver:20200420.1-noRTbar}	Anna2	27	20200420.1-noRTbar	debugYI7DH	51	461.175000004005	p11	1	D	1	F	NA	✿		37	1	50	45	debugYI7DH_27_Anna2	422	1	0	0	1
{name:Anna2,age:27,taskver:20200420.1-noRTbar}	Anna2	27	20200420.1-noRTbar	debugYI7DH	52	457.855000044219	p11	1	D	1	F	NA	✿		37	1	50	46	debugYI7DH_27_Anna2	424	1	0	0	1
{name:Anna2,age:27,taskver:20200420.1-noRTbar}	Anna2	27	20200420.1-noRTbar	debugYI7DH	53	499.089999997523	p11	1	D	1	F	NA	✿		37	1	50	45	debugYI7DH_27_Anna2	426	1	0	0	1
{name:Anna2,age:27,taskver:20200420.1-noRTbar}	Anna2	27	20200420.1-noRTbar	debugYI7DH	54	1003.96000000183	p11	1	F	1	D	NA	❖		37	1	50	32	debugYI7DH_27_Anna2	428	1	0	1	1
{name:Anna2,age:27,taskver:20200420.1-noRTbar}	Anna2	27	20200420.1-noRTbar	debugYI7DH	55	378.099999972619	p11	1	F	1	D	NA	❖		37	1	50	48	debugYI7DH_27_Anna2	430	1	0	1	1
{name:Anna2,age:27,taskver:20200420.1-noRTbar}	Anna2	27	20200420.1-noRTbar	debugYI7DH	56	805.119999975432	p11	1	F	1	R	NA	✢		37	1	50	28	debugYI7DH_27_Anna2	432	2	1	0	1
{name:Anna2,age:27,taskver:20200420.1-noRTbar}	Anna2	27	20200420.1-noRTbar	debugYI7DH	57	514.069999975618	p11	1	F	1	D	NA	❖		37	1	50	44	debugYI7DH_27_Anna2	434	1	0	1	1
{name:Anna2,age:27,taskver:20200420.1-noRTbar}	Anna2	27	20200420.1-noRTbar	debugYI7DH	58	506.289999990258	p11	1	D	1	F	NA	✿		37	1	50	44	debugYI7DH_27_Anna2	436	1	0	0	1
{name:Anna2,age:27,taskver:20200420.1-noRTbar}	Anna2	27	20200420.1-noRTbar	debugYI7DH	59	412.559999967925	p11	1	F	1	D	NA	❖		37	1	50	47	debugYI7DH_27_Anna2	438	1	0	1	1
{name:Anna2,age:27,taskver:20200420.1-noRTbar}	Anna2	27	20200420.1-noRTbar	debugYI7DH	60	488.670000049751	p11	1	D	1	F	NA	✿		37	1	50	45	debugYI7DH_27_Anna2	440	1	0	0	1
{name:Anna2,age:27,taskver:20200420.1-noRTbar}	Anna2	27	20200420.1-noRTbar	debugYI7DH	61	836.015000008047	p11	1	F	1	D	NA	❖		37	1	50	36	debugYI7DH_27_Anna2	442	1	0	1	1
{name:Anna2,age:27,taskver:20200420.1-noRTbar}	Anna2	27	20200420.1-noRTbar	debugYI7DH	62	623.610000009649	p11	1	D	1	F	NA	✿		37	1	50	41	debugYI7DH_27_Anna2	444	1	0	0	1
{name:Anna2,age:27,taskver:20200420.1-noRTbar}	Anna2	27	20200420.1-noRTbar	debugYI7DH	63	650.260000023991	p11	1	D	1	R	NA	✢		37	1	50	32	debugYI7DH_27_Anna2	446	2	1	0	1
{name:Anna2,age:27,taskver:20200420.1-noRTbar}	Anna2	27	20200420.1-noRTbar	debugYI7DH	64	1084.4849999994	p11	1	F	1	D	NA	❖		37	1	50	30	debugYI7DH_27_Anna2	448	1	0	1	1
{name:Anna2,age:27,taskver:20200420.1-noRTbar}	Anna2	27	20200420.1-noRTbar	debugYI7DH	65	1063.77000000793	p11	1	D	1	F	NA	✿		37	1	50	30	debugYI7DH_27_Anna2	450	1	0	0	1
{name:Anna2,age:27,taskver:20200420.1-noRTbar}	Anna2	27	20200420.1-noRTbar	debugYI7DH	66	690.59000001289	p11	1	D	1	R	NA	✢		39	1	50	31	debugYI7DH_27_Anna2	452	2	1	0	1
{name:Anna2,age:27,taskver:20200420.1-noRTbar}	Anna2	27	20200420.1-noRTbar	debugYI7DH	67	999.489999958314	p11	1	F	1	D	NA	❖		39	1	50	32	debugYI7DH_27_Anna2	454	1	0	1	1
{name:Anna2,age:27,taskver:20200420.1-noRTbar}	Anna2	27	20200420.1-noRTbar	debugYI7DH	68	567.760000005364	p11	1	F	1	D	NA	❖		37	1	50	43	debugYI7DH_27_Anna2	456	1	0	1	1
{name:Anna2,age:27,taskver:20200420.1-noRTbar}	Anna2	27	20200420.1-noRTbar	debugYI7DH	69	545.459999993909	p11	1	F	1	D	NA	❖		39	1	50	43	debugYI7DH_27_Anna2	458	1	0	1	1
{name:Anna2,age:27,taskver:20200420.1-noRTbar}	Anna2	27	20200420.1-noRTbar	debugYI7DH	70	597.030000004452	p11	1	F	1	D	NA	❖		39	1	50	42	debugYI7DH_27_Anna2	460	1	0	1	1
{name:Anna2,age:27,taskver:20200420.1-noRTbar}	Anna2	27	20200420.1-noRTbar	debugYI7DH	71	473.775000020396	p11	1	F	1	D	NA	❖		39	1	50	45	debugYI7DH_27_Anna2	462	1	0	1	1
{name:Anna2,age:27,taskver:20200420.1-noRTbar}	Anna2	27	20200420.1-noRTbar	debugYI7DH	72	535.165000008419	p11	1	F	1	D	NA	❖		37	1	50	44	debugYI7DH_27_Anna2	464	1	0	1	1
{name:Anna2,age:27,taskver:20200420.1-noRTbar}	Anna2	27	20200420.1-noRTbar	debugYI7DH	73	793.660000024829	p11	1	D	1	F	NA	✿		39	1	50	37	debugYI7DH_27_Anna2	466	1	0	0	1
{name:Anna2,age:27,taskver:20200420.1-noRTbar}	Anna2	27	20200420.1-noRTbar	debugYI7DH	74	528.25999999186	p11	1	F	1	D	NA	❖		39	1	50	44	debugYI7DH_27_Anna2	468	1	0	1	1
{name:Anna2,age:27,taskver:20200420.1-noRTbar}	Anna2	27	20200420.1-noRTbar	debugYI7DH	75	495.150000031572	p11	1	D	1	F	NA	✿		39	1	50	45	debugYI7DH_27_Anna2	470	1	0	0	1
{name:Anna2,age:27,taskver:20200420.1-noRTbar}	Anna2	27	20200420.1-noRTbar	debugYI7DH	76	406.585000047926	p11	1	D	1	F	NA	✿		37	1	50	47	debugYI7DH_27_Anna2	472	1	0	0	1
{name:Anna2,age:27,taskver:20200420.1-noRTbar}	Anna2	27	20200420.1-noRTbar	debugYI7DH	77	479.879999998957	p11	1	F	1	D	NA	❖		39	1	50	45	debugYI7DH_27_Anna2	474	1	0	1	1
{name:Anna2,age:27,taskver:20200420.1-noRTbar}	Anna2	27	20200420.1-noRTbar	debugYI7DH	78	631.889999960549	p11	1	F	1	R	NA	✢		37	1	50	32	debugYI7DH_27_Anna2	476	2	1	0	1
{name:Anna2,age:27,taskver:20200420.1-noRTbar}	Anna2	27	20200420.1-noRTbar	debugYI7DH	79	527.505000005476	p11	1	F	1	D	NA	❖		37	1	50	44	debugYI7DH_27_Anna2	478	1	0	1	1
{name:Anna2,age:27,taskver:20200420.1-noRTbar}	Anna2	27	20200420.1-noRTbar	debugYI7DH	80	479.730000020936	p11	1	F	1	D	NA	❖		39	1	50	45	debugYI7DH_27_Anna2	480	1	0	1	1
{name:Camden,age:16,taskver:20200413.2-rtpen+endQ}	Camden	16	20200413.2-rtpen+endQ	debugtBupz	1	1935	p28	0.2	F	0.8	D	NA			39	0.8	0	-1	debugtBupz_16_Camden	2	1	0	1	1
{name:Camden,age:16,taskver:20200413.2-rtpen+endQ}	Camden	16	20200413.2-rtpen+endQ	debugtBupz	2	1259	p28	0.8	D	0.2	F	NA			39	0.2	0	-1	debugtBupz_16_Camden	4	1	0	0	1
{name:Camden,age:16,taskver:20200413.2-rtpen+endQ}	Camden	16	20200413.2-rtpen+endQ	debugtBupz	3	1627	p28	0.2	F	0.8	D	NA			37	0.8	50	16	debugtBupz_16_Camden	6	1	0	1	1
{name:Camden,age:16,taskver:20200413.2-rtpen+endQ}	Camden	16	20200413.2-rtpen+endQ	debugtBupz	4	1116	p28	0.2	F	0.8	D	NA			37	0.8	50	29	debugtBupz_16_Camden	8	1	0	1	1
{name:Camden,age:16,taskver:20200413.2-rtpen+endQ}	Camden	16	20200413.2-rtpen+endQ	debugtBupz	5	940	p28	0.2	F	0.8	D	NA			37	0.8	50	33	debugtBupz_16_Camden	10	1	0	1	1
{name:Camden,age:16,taskver:20200413.2-rtpen+endQ}	Camden	16	20200413.2-rtpen+endQ	debugtBupz	6	988	p28	0.2	F	0.8	D	NA			37	0.8	50	32	debugtBupz_16_Camden	12	1	0	1	1
{name:Camden,age:16,taskver:20200413.2-rtpen+endQ}	Camden	16	20200413.2-rtpen+endQ	debugtBupz	7	989	p28	0.2	F	0.8	D	NA			37	0.8	50	32	debugtBupz_16_Camden	14	1	0	1	1
{name:Camden,age:16,taskver:20200413.2-rtpen+endQ}	Camden	16	20200413.2-rtpen+endQ	debugtBupz	8	885	p28	0.2	F	0.8	D	NA			39	0.8	0	-1	debugtBupz_16_Camden	16	1	0	1	1
{name:Camden,age:16,taskver:20200413.2-rtpen+endQ}	Camden	16	20200413.2-rtpen+endQ	debugtBupz	9	1127	p28	1	R	0.8	D	NA			37	0.8	50	29	debugtBupz_16_Camden	18	1	0	1	1
{name:Camden,age:16,taskver:20200413.2-rtpen+endQ}	Camden	16	20200413.2-rtpen+endQ	debugtBupz	10	1285	p28	1	R	0.2	F	NA			37	0.2	0	-1	debugtBupz_16_Camden	20	1	0	0	1
{name:Camden,age:16,taskver:20200413.2-rtpen+endQ}	Camden	16	20200413.2-rtpen+endQ	debugtBupz	11	1084	p28	0.2	F	0.8	D	NA			37	0.8	0	-1	debugtBupz_16_Camden	22	1	0	1	1
{name:Camden,age:16,taskver:20200413.2-rtpen+endQ}	Camden	16	20200413.2-rtpen+endQ	debugtBupz	12	1189	p28	0.2	F	1	R	NA			37	1	50	18	debugtBupz_16_Camden	24	2	1	0	1
{name:Camden,age:16,taskver:20200413.2-rtpen+endQ}	Camden	16	20200413.2-rtpen+endQ	debugtBupz	13	1429	p28	0.2	F	0.8	D	NA			39	0.8	50	21	debugtBupz_16_Camden	26	1	0	1	1
{name:Camden,age:16,taskver:20200413.2-rtpen+endQ}	Camden	16	20200413.2-rtpen+endQ	debugtBupz	14	1079	p28	0.2	F	1	R	NA			37	1	50	21	debugtBupz_16_Camden	28	2	1	0	1
{name:Camden,age:16,taskver:20200413.2-rtpen+endQ}	Camden	16	20200413.2-rtpen+endQ	debugtBupz	15	1245	p28	0.2	F	1	R	NA			39	1	50	17	debugtBupz_16_Camden	30	2	1	0	1
{name:Camden,age:16,taskver:20200413.2-rtpen+endQ}	Camden	16	20200413.2-rtpen+endQ	debugtBupz	16	1221	p28	1	R	0.8	D	NA			39	0.8	50	26	debugtBupz_16_Camden	32	1	0	1	1
{name:Camden,age:16,taskver:20200413.2-rtpen+endQ}	Camden	16	20200413.2-rtpen+endQ	debugtBupz	17	1133	p28	0.2	F	0.8	D	NA			39	0.8	50	29	debugtBupz_16_Camden	34	1	0	1	1
{name:Camden,age:16,taskver:20200413.2-rtpen+endQ}	Camden	16	20200413.2-rtpen+endQ	debugtBupz	18	1284	p28	0.8	D	1	R	NA			37	1	50	16	debugtBupz_16_Camden	36	2	1	0	1
{name:Camden,age:16,taskver:20200413.2-rtpen+endQ}	Camden	16	20200413.2-rtpen+endQ	debugtBupz	19	823	p28	0.2	F	0.8	D	NA			39	0.8	50	36	debugtBupz_16_Camden	38	1	0	1	1
{name:Camden,age:16,taskver:20200413.2-rtpen+endQ}	Camden	16	20200413.2-rtpen+endQ	debugtBupz	20	1333	p28	0.8	D	1	R	NA			39	1	50	15	debugtBupz_16_Camden	40	2	1	0	1
{name:Camden,age:16,taskver:20200413.2-rtpen+endQ}	Camden	16	20200413.2-rtpen+endQ	debugtBupz	21	1126	p28	0.2	F	0.8	D	NA			39	0.8	50	29	debugtBupz_16_Camden	42	1	0	1	1
{name:Camden,age:16,taskver:20200413.2-rtpen+endQ}	Camden	16	20200413.2-rtpen+endQ	debugtBupz	22	997	p28	0.2	F	0.8	D	NA			37	0.8	50	32	debugtBupz_16_Camden	44	1	0	1	1
{name:Camden,age:16,taskver:20200413.2-rtpen+endQ}	Camden	16	20200413.2-rtpen+endQ	debugtBupz	23	975	p28	0.2	F	0.8	D	NA			39	0.8	50	33	debugtBupz_16_Camden	46	1	0	1	1
{name:Camden,age:16,taskver:20200413.2-rtpen+endQ}	Camden	16	20200413.2-rtpen+endQ	debugtBupz	24	853	p28	0.2	F	0.8	D	NA			37	0.8	50	36	debugtBupz_16_Camden	48	1	0	1	1
{name:Camden,age:16,taskver:20200413.2-rtpen+endQ}	Camden	16	20200413.2-rtpen+endQ	debugtBupz	25	788	p28	0.2	F	0.8	D	NA			37	0.8	50	37	debugtBupz_16_Camden	50	1	0	1	1
{name:Camden,age:16,taskver:20200413.2-rtpen+endQ}	Camden	16	20200413.2-rtpen+endQ	debugtBupz	26	813	p28	0.2	F	0.8	D	NA			39	0.8	50	37	debugtBupz_16_Camden	52	1	0	1	1
{name:Camden,age:16,taskver:20200413.2-rtpen+endQ}	Camden	16	20200413.2-rtpen+endQ	debugtBupz	27	709	p28	0.2	F	0.8	D	NA			39	0.8	50	39	debugtBupz_16_Camden	54	1	0	1	1
{name:Camden,age:16,taskver:20200413.2-rtpen+endQ}	Camden	16	20200413.2-rtpen+endQ	debugtBupz	28	725	p28	0.2	F	0.8	D	NA			39	0.8	50	39	debugtBupz_16_Camden	56	1	0	1	1
{name:Camden,age:16,taskver:20200413.2-rtpen+endQ}	Camden	16	20200413.2-rtpen+endQ	debugtBupz	29	766	p28	0.2	F	0.8	D	NA			37	0.8	50	38	debugtBupz_16_Camden	58	1	0	1	1
{name:Camden,age:16,taskver:20200413.2-rtpen+endQ}	Camden	16	20200413.2-rtpen+endQ	debugtBupz	30	758	p28	0.2	F	0.8	D	NA			37	0.8	50	38	debugtBupz_16_Camden	60	1	0	1	1
{name:Camden,age:16,taskver:20200413.2-rtpen+endQ}	Camden	16	20200413.2-rtpen+endQ	debugtBupz	31	693	p28	0.2	F	0.8	D	NA			37	0.8	0	-1	debugtBupz_16_Camden	62	1	0	1	1
{name:Camden,age:16,taskver:20200413.2-rtpen+endQ}	Camden	16	20200413.2-rtpen+endQ	debugtBupz	32	744	p28	0.2	F	0.8	D	NA			37	0.8	0	-1	debugtBupz_16_Camden	64	1	0	1	1
{name:Camden,age:16,taskver:20200413.2-rtpen+endQ}	Camden	16	20200413.2-rtpen+endQ	debugtBupz	33	773	p28	0.8	D	0.2	F	NA			39	0.2	0	-1	debugtBupz_16_Camden	66	1	0	0	1
{name:Camden,age:16,taskver:20200413.2-rtpen+endQ}	Camden	16	20200413.2-rtpen+endQ	debugtBupz	34	758	p28	0.2	F	0.8	D	NA			39	0.8	0	-1	debugtBupz_16_Camden	68	1	0	1	1
{name:Camden,age:16,taskver:20200413.2-rtpen+endQ}	Camden	16	20200413.2-rtpen+endQ	debugtBupz	35	752	p28	0.2	F	0.8	D	NA			39	0.8	50	38	debugtBupz_16_Camden	70	1	0	1	1
{name:Camden,age:16,taskver:20200413.2-rtpen+endQ}	Camden	16	20200413.2-rtpen+endQ	debugtBupz	36	694	p28	0.2	F	0.8	D	NA			39	0.8	50	40	debugtBupz_16_Camden	72	1	0	1	1
{name:Camden,age:16,taskver:20200413.2-rtpen+endQ}	Camden	16	20200413.2-rtpen+endQ	debugtBupz	37	821	p28	0.2	F	0.8	D	NA			37	0.8	0	-1	debugtBupz_16_Camden	74	1	0	1	1
{name:Camden,age:16,taskver:20200413.2-rtpen+endQ}	Camden	16	20200413.2-rtpen+endQ	debugtBupz	38	686	p28	0.2	F	0.8	D	NA			39	0.8	50	40	debugtBupz_16_Camden	76	1	0	1	1
{name:Camden,age:16,taskver:20200413.2-rtpen+endQ}	Camden	16	20200413.2-rtpen+endQ	debugtBupz	39	717	p28	0.2	F	0.8	D	NA			39	0.8	50	39	debugtBupz_16_Camden	78	1	0	1	1
{name:Camden,age:16,taskver:20200413.2-rtpen+endQ}	Camden	16	20200413.2-rtpen+endQ	debugtBupz	40	717	p28	0.2	F	0.8	D	NA			39	0.8	50	39	debugtBupz_16_Camden	80	1	0	1	1
{name:Camden,age:16,taskver:20200413.2-rtpen+endQ}	Camden	16	20200413.2-rtpen+endQ	debugtBupz	41	781	p82	0.8	F	0.2	D	NA			37	0.2	0	-1	debugtBupz_16_Camden	82	1	0	1	2
{name:Camden,age:16,taskver:20200413.2-rtpen+endQ}	Camden	16	20200413.2-rtpen+endQ	debugtBupz	42	933	p82	0.2	D	1	R	NA			39	1	50	25	debugtBupz_16_Camden	84	2	1	0	2
{name:Camden,age:16,taskver:20200413.2-rtpen+endQ}	Camden	16	20200413.2-rtpen+endQ	debugtBupz	43	787	p82	0.8	F	0.2	D	NA			39	0.2	50	37	debugtBupz_16_Camden	86	1	0	1	2
{name:Camden,age:16,taskver:20200413.2-rtpen+endQ}	Camden	16	20200413.2-rtpen+endQ	debugtBupz	44	686	p82	0.8	F	0.2	D	NA			37	0.2	0	-1	debugtBupz_16_Camden	88	1	0	1	2
{name:Camden,age:16,taskver:20200413.2-rtpen+endQ}	Camden	16	20200413.2-rtpen+endQ	debugtBupz	45	775	p82	0.8	F	0.2	D	NA			37	0.2	0	-1	debugtBupz_16_Camden	90	1	0	1	2
{name:Camden,age:16,taskver:20200413.2-rtpen+endQ}	Camden	16	20200413.2-rtpen+endQ	debugtBupz	46	599	p82	0.8	F	0.2	D	NA			37	0.2	0	-1	debugtBupz_16_Camden	92	1	0	1	2
{name:Camden,age:16,taskver:20200413.2-rtpen+endQ}	Camden	16	20200413.2-rtpen+endQ	debugtBupz	47	1029	p82	0.8	F	1	R	NA			39	1	50	22	debugtBupz_16_Camden	94	2	1	0	2
{name:Camden,age:16,taskver:20200413.2-rtpen+endQ}	Camden	16	20200413.2-rtpen+endQ	debugtBupz	48	903	p82	0.2	D	0.8	F	NA			39	0.8	50	34	debugtBupz_16_Camden	96	1	0	0	2
{name:Camden,age:16,taskver:20200413.2-rtpen+endQ}	Camden	16	20200413.2-rtpen+endQ	debugtBupz	49	1357	p82	0.8	F	1	R	NA			39	1	50	14	debugtBupz_16_Camden	98	2	1	0	2
{name:Camden,age:16,taskver:20200413.2-rtpen+endQ}	Camden	16	20200413.2-rtpen+endQ	debugtBupz	50	660	p82	0.8	F	0.2	D	NA			37	0.2	0	-1	debugtBupz_16_Camden	100	1	0	1	2
{name:Camden,age:16,taskver:20200413.2-rtpen+endQ}	Camden	16	20200413.2-rtpen+endQ	debugtBupz	51	704	p82	0.8	F	0.2	D	NA			39	0.2	50	39	debugtBupz_16_Camden	102	1	0	1	2
{name:Camden,age:16,taskver:20200413.2-rtpen+endQ}	Camden	16	20200413.2-rtpen+endQ	debugtBupz	52	565	p82	0.8	F	0.2	D	NA			39	0.2	50	43	debugtBupz_16_Camden	104	1	0	1	2
{name:Camden,age:16,taskver:20200413.2-rtpen+endQ}	Camden	16	20200413.2-rtpen+endQ	debugtBupz	53	749	p82	0.8	F	0.2	D	NA			39	0.2	0	-1	debugtBupz_16_Camden	106	1	0	1	2
{name:Camden,age:16,taskver:20200413.2-rtpen+endQ}	Camden	16	20200413.2-rtpen+endQ	debugtBupz	54	717	p82	0.8	F	0.2	D	NA			39	0.2	50	39	debugtBupz_16_Camden	108	1	0	1	2
{name:Camden,age:16,taskver:20200413.2-rtpen+endQ}	Camden	16	20200413.2-rtpen+endQ	debugtBupz	55	696	p82	0.8	F	0.2	D	NA			39	0.2	0	-1	debugtBupz_16_Camden	110	1	0	1	2
{name:Camden,age:16,taskver:20200413.2-rtpen+endQ}	Camden	16	20200413.2-rtpen+endQ	debugtBupz	56	573	p82	0.8	F	0.2	D	NA			37	0.2	0	-1	debugtBupz_16_Camden	112	1	0	1	2
{name:Camden,age:16,taskver:20200413.2-rtpen+endQ}	Camden	16	20200413.2-rtpen+endQ	debugtBupz	57	605	p82	0.8	F	0.2	D	NA			37	0.2	0	-1	debugtBupz_16_Camden	114	1	0	1	2
{name:Camden,age:16,taskver:20200413.2-rtpen+endQ}	Camden	16	20200413.2-rtpen+endQ	debugtBupz	58	766	p82	0.8	F	0.2	D	NA			37	0.2	0	-1	debugtBupz_16_Camden	116	1	0	1	2
{name:Camden,age:16,taskver:20200413.2-rtpen+endQ}	Camden	16	20200413.2-rtpen+endQ	debugtBupz	59	814	p82	0.2	D	0.8	F	NA			39	0.8	50	37	debugtBupz_16_Camden	118	1	0	0	2
{name:Camden,age:16,taskver:20200413.2-rtpen+endQ}	Camden	16	20200413.2-rtpen+endQ	debugtBupz	60	901	p82	0.2	D	0.8	F	NA			37	0.8	50	34	debugtBupz_16_Camden	120	1	0	0	2
{name:Camden,age:16,taskver:20200413.2-rtpen+endQ}	Camden	16	20200413.2-rtpen+endQ	debugtBupz	61	1109	p82	0.8	F	1	R	NA			37	1	50	20	debugtBupz_16_Camden	122	2	1	0	2
{name:Camden,age:16,taskver:20200413.2-rtpen+endQ}	Camden	16	20200413.2-rtpen+endQ	debugtBupz	62	789	p82	0.2	D	0.8	F	NA			39	0.8	0	-1	debugtBupz_16_Camden	124	1	0	0	2
{name:Camden,age:16,taskver:20200413.2-rtpen+endQ}	Camden	16	20200413.2-rtpen+endQ	debugtBupz	63	894	p82	0.8	F	1	R	NA			37	1	50	26	debugtBupz_16_Camden	126	2	1	0	2
{name:Camden,age:16,taskver:20200413.2-rtpen+endQ}	Camden	16	20200413.2-rtpen+endQ	debugtBupz	64	797	p82	0.8	F	0.2	D	NA			39	0.2	0	-1	debugtBupz_16_Camden	128	1	0	1	2
{name:Camden,age:16,taskver:20200413.2-rtpen+endQ}	Camden	16	20200413.2-rtpen+endQ	debugtBupz	65	942	p82	0.8	F	0.2	D	NA			39	0.2	0	-1	debugtBupz_16_Camden	130	1	0	1	2
{name:Camden,age:16,taskver:20200413.2-rtpen+endQ}	Camden	16	20200413.2-rtpen+endQ	debugtBupz	66	773	p82	0.2	D	0.8	F	NA			37	0.8	0	-1	debugtBupz_16_Camden	132	1	0	0	2
{name:Camden,age:16,taskver:20200413.2-rtpen+endQ}	Camden	16	20200413.2-rtpen+endQ	debugtBupz	67	760	p82	0.8	F	0.2	D	NA			37	0.2	0	-1	debugtBupz_16_Camden	134	1	0	1	2
{name:Camden,age:16,taskver:20200413.2-rtpen+endQ}	Camden	16	20200413.2-rtpen+endQ	debugtBupz	68	685	p82	0.8	F	0.2	D	NA			37	0.2	0	-1	debugtBupz_16_Camden	136	1	0	1	2
{name:Camden,age:16,taskver:20200413.2-rtpen+endQ}	Camden	16	20200413.2-rtpen+endQ	debugtBupz	69	934	p82	0.8	F	0.2	D	NA			39	0.2	0	-1	debugtBupz_16_Camden	138	1	0	1	2
{name:Camden,age:16,taskver:20200413.2-rtpen+endQ}	Camden	16	20200413.2-rtpen+endQ	debugtBupz	70	623	p82	0.8	F	0.2	D	NA			37	0.2	0	-1	debugtBupz_16_Camden	140	1	0	1	2
{name:Camden,age:16,taskver:20200413.2-rtpen+endQ}	Camden	16	20200413.2-rtpen+endQ	debugtBupz	71	902	p82	0.2	D	0.8	F	NA			37	0.8	50	34	debugtBupz_16_Camden	142	1	0	0	2
{name:Camden,age:16,taskver:20200413.2-rtpen+endQ}	Camden	16	20200413.2-rtpen+endQ	debugtBupz	72	973	p82	0.2	D	1	R	NA			37	1	50	24	debugtBupz_16_Camden	144	2	1	0	2
{name:Camden,age:16,taskver:20200413.2-rtpen+endQ}	Camden	16	20200413.2-rtpen+endQ	debugtBupz	73	925	p82	0.2	D	1	R	NA			37	1	50	25	debugtBupz_16_Camden	146	2	1	0	2
{name:Camden,age:16,taskver:20200413.2-rtpen+endQ}	Camden	16	20200413.2-rtpen+endQ	debugtBupz	74	1062	p82	0.8	F	0.2	D	NA			39	0.2	0	-1	debugtBupz_16_Camden	148	1	0	1	2
{name:Camden,age:16,taskver:20200413.2-rtpen+endQ}	Camden	16	20200413.2-rtpen+endQ	debugtBupz	75	990	p82	0.2	D	1	R	NA			39	1	50	23	debugtBupz_16_Camden	150	2	1	0	2
{name:Camden,age:16,taskver:20200413.2-rtpen+endQ}	Camden	16	20200413.2-rtpen+endQ	debugtBupz	76	790	p82	0.8	F	0.2	D	NA			39	0.2	0	-1	debugtBupz_16_Camden	152	1	0	1	2
{name:Camden,age:16,taskver:20200413.2-rtpen+endQ}	Camden	16	20200413.2-rtpen+endQ	debugtBupz	77	1016	p82	0.2	D	0.8	F	NA			37	0.8	50	32	debugtBupz_16_Camden	154	1	0	0	2
{name:Camden,age:16,taskver:20200413.2-rtpen+endQ}	Camden	16	20200413.2-rtpen+endQ	debugtBupz	78	811	p82	0.2	D	0.8	F	NA			37	0.8	50	37	debugtBupz_16_Camden	156	1	0	0	2
{name:Camden,age:16,taskver:20200413.2-rtpen+endQ}	Camden	16	20200413.2-rtpen+endQ	debugtBupz	79	717	p82	0.2	D	0.8	F	NA			39	0.8	50	39	debugtBupz_16_Camden	158	1	0	0	2
{name:Camden,age:16,taskver:20200413.2-rtpen+endQ}	Camden	16	20200413.2-rtpen+endQ	debugtBupz	80	669	p82	0.2	D	0.8	F	NA			39	0.8	50	40	debugtBupz_16_Camden	160	1	0	0	2
{name:Camden,age:16,taskver:20200413.2-rtpen+endQ}	Camden	16	20200413.2-rtpen+endQ	debugtBupz	81	664	p28	0.8	D	0.2	F	NA			37	0.2	50	40	debugtBupz_16_Camden	162	1	0	0	3
{name:Camden,age:16,taskver:20200413.2-rtpen+endQ}	Camden	16	20200413.2-rtpen+endQ	debugtBupz	82	693	p28	0.8	D	0.2	F	NA			39	0.2	0	-1	debugtBupz_16_Camden	164	1	0	0	3
{name:Camden,age:16,taskver:20200413.2-rtpen+endQ}	Camden	16	20200413.2-rtpen+endQ	debugtBupz	83	933	p28	0.8	D	1	R	NA			37	1	50	25	debugtBupz_16_Camden	166	2	1	0	3
{name:Camden,age:16,taskver:20200413.2-rtpen+endQ}	Camden	16	20200413.2-rtpen+endQ	debugtBupz	84	669	p28	0.8	D	0.2	F	NA			39	0.2	0	-1	debugtBupz_16_Camden	168	1	0	0	3
{name:Camden,age:16,taskver:20200413.2-rtpen+endQ}	Camden	16	20200413.2-rtpen+endQ	debugtBupz	85	607	p28	0.8	D	0.2	F	NA			39	0.2	0	-1	debugtBupz_16_Camden	170	1	0	0	3
{name:Camden,age:16,taskver:20200413.2-rtpen+endQ}	Camden	16	20200413.2-rtpen+endQ	debugtBupz	86	918	p28	0.2	F	1	R	NA			39	1	50	25	debugtBupz_16_Camden	172	2	1	0	3
{name:Camden,age:16,taskver:20200413.2-rtpen+endQ}	Camden	16	20200413.2-rtpen+endQ	debugtBupz	87	1141	p28	0.8	D	0.2	F	NA			39	0.2	0	-1	debugtBupz_16_Camden	174	1	0	0	3
{name:Camden,age:16,taskver:20200413.2-rtpen+endQ}	Camden	16	20200413.2-rtpen+endQ	debugtBupz	88	990	p28	0.8	D	0.2	F	NA			39	0.2	0	-1	debugtBupz_16_Camden	176	1	0	0	3
{name:Camden,age:16,taskver:20200413.2-rtpen+endQ}	Camden	16	20200413.2-rtpen+endQ	debugtBupz	89	935	p28	0.2	F	0.8	D	NA			39	0.8	50	34	debugtBupz_16_Camden	178	1	0	1	3
{name:Camden,age:16,taskver:20200413.2-rtpen+endQ}	Camden	16	20200413.2-rtpen+endQ	debugtBupz	90	854	p28	0.8	D	0.2	F	NA			39	0.2	0	-1	debugtBupz_16_Camden	180	1	0	0	3
{name:Camden,age:16,taskver:20200413.2-rtpen+endQ}	Camden	16	20200413.2-rtpen+endQ	debugtBupz	91	958	p28	0.8	D	0.2	F	NA			37	0.2	0	-1	debugtBupz_16_Camden	182	1	0	0	3
{name:Camden,age:16,taskver:20200413.2-rtpen+endQ}	Camden	16	20200413.2-rtpen+endQ	debugtBupz	92	830	p28	0.8	D	1	R	NA			37	1	50	27	debugtBupz_16_Camden	184	2	1	0	3
{name:Camden,age:16,taskver:20200413.2-rtpen+endQ}	Camden	16	20200413.2-rtpen+endQ	debugtBupz	93	1013	p28	0.2	F	0.8	D	NA			39	0.8	50	32	debugtBupz_16_Camden	186	1	0	1	3
{name:Camden,age:16,taskver:20200413.2-rtpen+endQ}	Camden	16	20200413.2-rtpen+endQ	debugtBupz	94	776	p28	0.8	D	1	R	NA			39	1	50	29	debugtBupz_16_Camden	188	2	1	0	3
{name:Camden,age:16,taskver:20200413.2-rtpen+endQ}	Camden	16	20200413.2-rtpen+endQ	debugtBupz	95	718	p28	0.2	F	0.8	D	NA			39	0.8	50	39	debugtBupz_16_Camden	190	1	0	1	3
{name:Camden,age:16,taskver:20200413.2-rtpen+endQ}	Camden	16	20200413.2-rtpen+endQ	debugtBupz	96	773	p28	0.2	F	0.8	D	NA			37	0.8	50	38	debugtBupz_16_Camden	192	1	0	1	3
{name:Camden,age:16,taskver:20200413.2-rtpen+endQ}	Camden	16	20200413.2-rtpen+endQ	debugtBupz	97	845	p28	0.2	F	1	R	NA			37	1	50	27	debugtBupz_16_Camden	194	2	1	0	3
{name:Camden,age:16,taskver:20200413.2-rtpen+endQ}	Camden	16	20200413.2-rtpen+endQ	debugtBupz	98	669	p28	0.2	F	0.8	D	NA			39	0.8	50	40	debugtBupz_16_Camden	196	1	0	1	3
{name:Camden,age:16,taskver:20200413.2-rtpen+endQ}	Camden	16	20200413.2-rtpen+endQ	debugtBupz	99	645	p28	0.2	F	0.8	D	NA			37	0.8	50	41	debugtBupz_16_Camden	198	1	0	1	3
{name:Camden,age:16,taskver:20200413.2-rtpen+endQ}	Camden	16	20200413.2-rtpen+endQ	debugtBupz	100	791	p28	0.2	F	0.8	D	NA			39	0.8	0	-1	debugtBupz_16_Camden	200	1	0	1	3
{name:Camden,age:16,taskver:20200413.2-rtpen+endQ}	Camden	16	20200413.2-rtpen+endQ	debugtBupz	101	851	p28	0.8	D	0.2	F	NA			37	0.2	50	36	debugtBupz_16_Camden	202	1	0	0	3
{name:Camden,age:16,taskver:20200413.2-rtpen+endQ}	Camden	16	20200413.2-rtpen+endQ	debugtBupz	102	780	p28	0.8	D	0.2	F	NA			37	0.2	50	37	debugtBupz_16_Camden	204	1	0	0	3
{name:Camden,age:16,taskver:20200413.2-rtpen+endQ}	Camden	16	20200413.2-rtpen+endQ	debugtBupz	103	815	p28	0.2	F	1	R	NA			39	1	50	28	debugtBupz_16_Camden	206	2	1	0	3
{name:Camden,age:16,taskver:20200413.2-rtpen+endQ}	Camden	16	20200413.2-rtpen+endQ	debugtBupz	104	1054	p28	0.2	F	0.8	D	NA			37	0.8	50	31	debugtBupz_16_Camden	208	1	0	1	3
{name:Camden,age:16,taskver:20200413.2-rtpen+endQ}	Camden	16	20200413.2-rtpen+endQ	debugtBupz	105	477	p28	0.8	D	1	R	NA			39	1	50	36	debugtBupz_16_Camden	210	2	1	0	3
{name:Camden,age:16,taskver:20200413.2-rtpen+endQ}	Camden	16	20200413.2-rtpen+endQ	debugtBupz	106	381	p28	0.8	D	0.2	F	NA			37	0.2	0	-1	debugtBupz_16_Camden	212	1	0	0	3
{name:Camden,age:16,taskver:20200413.2-rtpen+endQ}	Camden	16	20200413.2-rtpen+endQ	debugtBupz	107	519	p28	0.2	F	0.8	D	NA			37	0.8	50	44	debugtBupz_16_Camden	214	1	0	1	3
{name:Camden,age:16,taskver:20200413.2-rtpen+endQ}	Camden	16	20200413.2-rtpen+endQ	debugtBupz	108	677	p28	0.2	F	0.8	D	NA			39	0.8	50	40	debugtBupz_16_Camden	216	1	0	1	3
{name:Camden,age:16,taskver:20200413.2-rtpen+endQ}	Camden	16	20200413.2-rtpen+endQ	debugtBupz	109	575	p28	0.2	F	0.8	D	NA			37	0.8	50	43	debugtBupz_16_Camden	218	1	0	1	3
{name:Camden,age:16,taskver:20200413.2-rtpen+endQ}	Camden	16	20200413.2-rtpen+endQ	debugtBupz	110	621	p28	0.2	F	0.8	D	NA			39	0.8	50	41	debugtBupz_16_Camden	220	1	0	1	3
{name:Camden,age:16,taskver:20200413.2-rtpen+endQ}	Camden	16	20200413.2-rtpen+endQ	debugtBupz	111	647	p28	0.2	F	0.8	D	NA			37	0.8	50	41	debugtBupz_16_Camden	222	1	0	1	3
{name:Camden,age:16,taskver:20200413.2-rtpen+endQ}	Camden	16	20200413.2-rtpen+endQ	debugtBupz	112	566	p28	0.2	F	0.8	D	NA			37	0.8	50	43	debugtBupz_16_Camden	224	1	0	1	3
{name:Camden,age:16,taskver:20200413.2-rtpen+endQ}	Camden	16	20200413.2-rtpen+endQ	debugtBupz	113	683	p28	0.2	F	0.8	D	NA			37	0.8	50	40	debugtBupz_16_Camden	226	1	0	1	3
{name:Camden,age:16,taskver:20200413.2-rtpen+endQ}	Camden	16	20200413.2-rtpen+endQ	debugtBupz	114	661	p28	0.2	F	0.8	D	NA			39	0.8	50	40	debugtBupz_16_Camden	228	1	0	1	3
{name:Camden,age:16,taskver:20200413.2-rtpen+endQ}	Camden	16	20200413.2-rtpen+endQ	debugtBupz	115	628	p28	0.2	F	1	R	NA			37	1	50	32	debugtBupz_16_Camden	230	2	1	0	3
{name:Camden,age:16,taskver:20200413.2-rtpen+endQ}	Camden	16	20200413.2-rtpen+endQ	debugtBupz	116	741	p28	0.2	F	0.8	D	NA			37	0.8	50	38	debugtBupz_16_Camden	232	1	0	1	3
{name:Camden,age:16,taskver:20200413.2-rtpen+endQ}	Camden	16	20200413.2-rtpen+endQ	debugtBupz	117	620	p28	0.8	D	0.2	F	NA			39	0.2	50	41	debugtBupz_16_Camden	234	1	0	0	3
{name:Camden,age:16,taskver:20200413.2-rtpen+endQ}	Camden	16	20200413.2-rtpen+endQ	debugtBupz	118	654	p28	0.2	F	0.8	D	NA			39	0.8	50	41	debugtBupz_16_Camden	236	1	0	1	3
{name:Camden,age:16,taskver:20200413.2-rtpen+endQ}	Camden	16	20200413.2-rtpen+endQ	debugtBupz	119	677	p28	0.8	D	0.2	F	NA			37	0.2	0	-1	debugtBupz_16_Camden	238	1	0	0	3
{name:Camden,age:16,taskver:20200413.2-rtpen+endQ}	Camden	16	20200413.2-rtpen+endQ	debugtBupz	120	720	p28	0.8	D	0.2	F	NA			37	0.2	0	-1	debugtBupz_16_Camden	240	1	0	0	3
{name:Camden,age:16,taskver:20200413.2-rtpen+endQ}	Camden	16	20200413.2-rtpen+endQ	debugtBupz	121	636	p82	0.8	F	1	R	NA			37	1	50	32	debugtBupz_16_Camden	242	2	1	0	4
{name:Camden,age:16,taskver:20200413.2-rtpen+endQ}	Camden	16	20200413.2-rtpen+endQ	debugtBupz	122	742	p82	0.2	D	0.8	F	NA			39	0.8	50	38	debugtBupz_16_Camden	244	1	0	0	4
{name:Camden,age:16,taskver:20200413.2-rtpen+endQ}	Camden	16	20200413.2-rtpen+endQ	debugtBupz	123	799	p82	0.8	F	0.2	D	NA			39	0.2	50	37	debugtBupz_16_Camden	246	1	0	1	4
{name:Camden,age:16,taskver:20200413.2-rtpen+endQ}	Camden	16	20200413.2-rtpen+endQ	debugtBupz	124	797	p82	0.2	D	1	R	NA			39	1	50	28	debugtBupz_16_Camden	248	2	1	0	4
{name:Camden,age:16,taskver:20200413.2-rtpen+endQ}	Camden	16	20200413.2-rtpen+endQ	debugtBupz	125	675	p82	0.8	F	0.2	D	NA			39	0.2	0	-1	debugtBupz_16_Camden	250	1	0	1	4
{name:Camden,age:16,taskver:20200413.2-rtpen+endQ}	Camden	16	20200413.2-rtpen+endQ	debugtBupz	126	661	p82	0.2	D	0.8	F	NA			37	0.8	0	-1	debugtBupz_16_Camden	252	1	0	0	4
{name:Camden,age:16,taskver:20200413.2-rtpen+endQ}	Camden	16	20200413.2-rtpen+endQ	debugtBupz	127	653	p82	0.8	F	0.2	D	NA			37	0.2	0	-1	debugtBupz_16_Camden	254	1	0	1	4
{name:Camden,age:16,taskver:20200413.2-rtpen+endQ}	Camden	16	20200413.2-rtpen+endQ	debugtBupz	128	695	p82	0.2	D	0.8	F	NA			37	0.8	50	40	debugtBupz_16_Camden	256	1	0	0	4
{name:Camden,age:16,taskver:20200413.2-rtpen+endQ}	Camden	16	20200413.2-rtpen+endQ	debugtBupz	129	688	p82	0.8	F	0.2	D	NA			37	0.2	0	-1	debugtBupz_16_Camden	258	1	0	1	4
{name:Camden,age:16,taskver:20200413.2-rtpen+endQ}	Camden	16	20200413.2-rtpen+endQ	debugtBupz	130	750	p82	0.2	D	0.8	F	NA			37	0.8	50	38	debugtBupz_16_Camden	260	1	0	0	4
{name:Camden,age:16,taskver:20200413.2-rtpen+endQ}	Camden	16	20200413.2-rtpen+endQ	debugtBupz	131	629	p82	0.2	D	0.8	F	NA			39	0.8	50	41	debugtBupz_16_Camden	262	1	0	0	4
{name:Camden,age:16,taskver:20200413.2-rtpen+endQ}	Camden	16	20200413.2-rtpen+endQ	debugtBupz	132	670	p82	0.8	F	1	R	NA			37	1	50	31	debugtBupz_16_Camden	264	2	1	0	4
{name:Camden,age:16,taskver:20200413.2-rtpen+endQ}	Camden	16	20200413.2-rtpen+endQ	debugtBupz	133	678	p82	0.8	F	0.2	D	NA			37	0.2	0	-1	debugtBupz_16_Camden	266	1	0	1	4
{name:Camden,age:16,taskver:20200413.2-rtpen+endQ}	Camden	16	20200413.2-rtpen+endQ	debugtBupz	134	592	p82	0.8	F	0.2	D	NA			37	0.2	50	42	debugtBupz_16_Camden	268	1	0	1	4
{name:Camden,age:16,taskver:20200413.2-rtpen+endQ}	Camden	16	20200413.2-rtpen+endQ	debugtBupz	135	678	p82	0.8	F	0.2	D	NA			39	0.2	0	-1	debugtBupz_16_Camden	270	1	0	1	4
{name:Camden,age:16,taskver:20200413.2-rtpen+endQ}	Camden	16	20200413.2-rtpen+endQ	debugtBupz	136	573	p82	0.8	F	0.2	D	NA			39	0.2	0	-1	debugtBupz_16_Camden	272	1	0	1	4
{name:Camden,age:16,taskver:20200413.2-rtpen+endQ}	Camden	16	20200413.2-rtpen+endQ	debugtBupz	137	685	p82	0.8	F	0.2	D	NA			39	0.2	0	-1	debugtBupz_16_Camden	274	1	0	1	4
{name:Camden,age:16,taskver:20200413.2-rtpen+endQ}	Camden	16	20200413.2-rtpen+endQ	debugtBupz	138	664	p82	0.2	D	0.8	F	NA			39	0.8	50	40	debugtBupz_16_Camden	276	1	0	0	4
{name:Camden,age:16,taskver:20200413.2-rtpen+endQ}	Camden	16	20200413.2-rtpen+endQ	debugtBupz	139	789	p82	0.2	D	0.8	F	NA			37	0.8	0	-1	debugtBupz_16_Camden	278	1	0	0	4
{name:Camden,age:16,taskver:20200413.2-rtpen+endQ}	Camden	16	20200413.2-rtpen+endQ	debugtBupz	140	630	p82	0.8	F	0.2	D	NA			39	0.2	0	-1	debugtBupz_16_Camden	280	1	0	1	4
{name:Camden,age:16,taskver:20200413.2-rtpen+endQ}	Camden	16	20200413.2-rtpen+endQ	debugtBupz	141	622	p82	0.2	D	1	R	NA			39	1	50	32	debugtBupz_16_Camden	282	2	1	0	4
{name:Camden,age:16,taskver:20200413.2-rtpen+endQ}	Camden	16	20200413.2-rtpen+endQ	debugtBupz	142	629	p82	0.8	F	1	R	NA			39	1	50	32	debugtBupz_16_Camden	284	2	1	0	4
{name:Camden,age:16,taskver:20200413.2-rtpen+endQ}	Camden	16	20200413.2-rtpen+endQ	debugtBupz	143	581	p82	0.2	D	0.8	F	NA			39	0.8	50	42	debugtBupz_16_Camden	286	1	0	0	4
{name:Camden,age:16,taskver:20200413.2-rtpen+endQ}	Camden	16	20200413.2-rtpen+endQ	debugtBupz	144	604	p82	0.8	F	0.2	D	NA			37	0.2	0	-1	debugtBupz_16_Camden	288	1	0	1	4
{name:Camden,age:16,taskver:20200413.2-rtpen+endQ}	Camden	16	20200413.2-rtpen+endQ	debugtBupz	145	589	p82	0.2	D	1	R	NA			37	1	50	33	debugtBupz_16_Camden	290	2	1	0	4
{name:Camden,age:16,taskver:20200413.2-rtpen+endQ}	Camden	16	20200413.2-rtpen+endQ	debugtBupz	146	654	p82	0.8	F	0.2	D	NA			37	0.2	0	-1	debugtBupz_16_Camden	292	1	0	1	4
{name:Camden,age:16,taskver:20200413.2-rtpen+endQ}	Camden	16	20200413.2-rtpen+endQ	debugtBupz	147	653	p82	0.8	F	0.2	D	NA			37	0.2	0	-1	debugtBupz_16_Camden	294	1	0	1	4
{name:Camden,age:16,taskver:20200413.2-rtpen+endQ}	Camden	16	20200413.2-rtpen+endQ	debugtBupz	148	573	p82	0.2	D	0.8	F	NA			37	0.8	50	43	debugtBupz_16_Camden	296	1	0	0	4
{name:Camden,age:16,taskver:20200413.2-rtpen+endQ}	Camden	16	20200413.2-rtpen+endQ	debugtBupz	149	662	p82	0.8	F	0.2	D	NA			37	0.2	0	-1	debugtBupz_16_Camden	298	1	0	1	4
{name:Camden,age:16,taskver:20200413.2-rtpen+endQ}	Camden	16	20200413.2-rtpen+endQ	debugtBupz	150	639	p82	0.8	F	0.2	D	NA			37	0.2	0	-1	debugtBupz_16_Camden	300	1	0	1	4
{name:Camden,age:16,taskver:20200413.2-rtpen+endQ}	Camden	16	20200413.2-rtpen+endQ	debugtBupz	151	622	p82	0.2	D	0.8	F	NA			39	0.8	50	41	debugtBupz_16_Camden	302	1	0	0	4
{name:Camden,age:16,taskver:20200413.2-rtpen+endQ}	Camden	16	20200413.2-rtpen+endQ	debugtBupz	152	613	p82	0.8	F	1	R	NA			39	1	50	33	debugtBupz_16_Camden	304	2	1	0	4
{name:Camden,age:16,taskver:20200413.2-rtpen+endQ}	Camden	16	20200413.2-rtpen+endQ	debugtBupz	153	636	p82	0.2	D	0.8	F	NA			39	0.8	0	-1	debugtBupz_16_Camden	306	1	0	0	4
{name:Camden,age:16,taskver:20200413.2-rtpen+endQ}	Camden	16	20200413.2-rtpen+endQ	debugtBupz	154	558	p82	0.2	D	0.8	F	NA			39	0.8	50	43	debugtBupz_16_Camden	308	1	0	0	4
{name:Camden,age:16,taskver:20200413.2-rtpen+endQ}	Camden	16	20200413.2-rtpen+endQ	debugtBupz	155	628	p82	0.2	D	0.8	F	NA			37	0.8	50	41	debugtBupz_16_Camden	310	1	0	0	4
{name:Camden,age:16,taskver:20200413.2-rtpen+endQ}	Camden	16	20200413.2-rtpen+endQ	debugtBupz	156	637	p82	0.2	D	0.8	F	NA			37	0.8	50	41	debugtBupz_16_Camden	312	1	0	0	4
{name:Camden,age:16,taskver:20200413.2-rtpen+endQ}	Camden	16	20200413.2-rtpen+endQ	debugtBupz	157	621	p82	0.2	D	1	R	NA			37	1	50	32	debugtBupz_16_Camden	314	2	1	0	4
{name:Camden,age:16,taskver:20200413.2-rtpen+endQ}	Camden	16	20200413.2-rtpen+endQ	debugtBupz	158	629	p82	0.2	D	0.8	F	NA			37	0.8	50	41	debugtBupz_16_Camden	316	1	0	0	4
{name:Camden,age:16,taskver:20200413.2-rtpen+endQ}	Camden	16	20200413.2-rtpen+endQ	debugtBupz	159	693	p82	0.8	F	0.2	D	NA			39	0.2	0	-1	debugtBupz_16_Camden	318	1	0	1	4
{name:Camden,age:16,taskver:20200413.2-rtpen+endQ}	Camden	16	20200413.2-rtpen+endQ	debugtBupz	160	612	p82	0.2	D	0.8	F	NA			37	0.8	0	-1	debugtBupz_16_Camden	320	1	0	0	4
{name:Camden,age:16,taskver:20200413.2-rtpen+endQ}	Camden	16	20200413.2-rtpen+endQ	debugtBupz	161	613	p11	1	F	1	D	NA			37	1	50	42	debugtBupz_16_Camden	322	1	0	1	5
{name:Camden,age:16,taskver:20200413.2-rtpen+endQ}	Camden	16	20200413.2-rtpen+endQ	debugtBupz	162	636	p11	1	F	1	D	NA			37	1	50	41	debugtBupz_16_Camden	324	1	0	1	5
{name:Camden,age:16,taskver:20200413.2-rtpen+endQ}	Camden	16	20200413.2-rtpen+endQ	debugtBupz	163	656	p11	1	D	1	F	NA			37	1	50	41	debugtBupz_16_Camden	326	1	0	0	5
{name:Camden,age:16,taskver:20200413.2-rtpen+endQ}	Camden	16	20200413.2-rtpen+endQ	debugtBupz	164	612	p11	1	D	1	F	NA			37	1	50	42	debugtBupz_16_Camden	328	1	0	0	5
{name:Camden,age:16,taskver:20200413.2-rtpen+endQ}	Camden	16	20200413.2-rtpen+endQ	debugtBupz	165	694	p11	1	R	1	F	NA			37	1	50	40	debugtBupz_16_Camden	330	1	0	0	5
{name:Camden,age:16,taskver:20200413.2-rtpen+endQ}	Camden	16	20200413.2-rtpen+endQ	debugtBupz	166	604	p11	1	F	1	D	NA			37	1	50	42	debugtBupz_16_Camden	332	1	0	1	5
{name:Camden,age:16,taskver:20200413.2-rtpen+endQ}	Camden	16	20200413.2-rtpen+endQ	debugtBupz	167	553	p11	1	F	1	D	NA			37	1	50	43	debugtBupz_16_Camden	334	1	0	1	5
{name:Camden,age:16,taskver:20200413.2-rtpen+endQ}	Camden	16	20200413.2-rtpen+endQ	debugtBupz	168	541	p11	1	F	1	D	NA			37	1	50	43	debugtBupz_16_Camden	336	1	0	1	5
{name:Camden,age:16,taskver:20200413.2-rtpen+endQ}	Camden	16	20200413.2-rtpen+endQ	debugtBupz	169	589	p11	1	D	1	F	NA			37	1	50	42	debugtBupz_16_Camden	338	1	0	0	5
{name:Camden,age:16,taskver:20200413.2-rtpen+endQ}	Camden	16	20200413.2-rtpen+endQ	debugtBupz	170	639	p11	1	D	1	R	NA			37	1	50	32	debugtBupz_16_Camden	340	2	1	0	5
{name:Camden,age:16,taskver:20200413.2-rtpen+endQ}	Camden	16	20200413.2-rtpen+endQ	debugtBupz	171	542	p11	1	F	1	D	NA			37	1	50	43	debugtBupz_16_Camden	342	1	0	1	5
{name:Camden,age:16,taskver:20200413.2-rtpen+endQ}	Camden	16	20200413.2-rtpen+endQ	debugtBupz	172	501	p11	1	D	1	F	NA			37	1	50	44	debugtBupz_16_Camden	344	1	0	0	5
{name:Camden,age:16,taskver:20200413.2-rtpen+endQ}	Camden	16	20200413.2-rtpen+endQ	debugtBupz	173	541	p11	1	D	1	R	NA			37	1	50	34	debugtBupz_16_Camden	346	2	1	0	5
{name:Camden,age:16,taskver:20200413.2-rtpen+endQ}	Camden	16	20200413.2-rtpen+endQ	debugtBupz	174	549	p11	1	D	1	F	NA			37	1	50	43	debugtBupz_16_Camden	348	1	0	0	5
{name:Camden,age:16,taskver:20200413.2-rtpen+endQ}	Camden	16	20200413.2-rtpen+endQ	debugtBupz	175	470	p11	1	D	1	F	NA			37	1	50	45	debugtBupz_16_Camden	350	1	0	0	5
{name:Camden,age:16,taskver:20200413.2-rtpen+endQ}	Camden	16	20200413.2-rtpen+endQ	debugtBupz	176	516	p11	1	D	1	F	NA			37	1	50	44	debugtBupz_16_Camden	352	1	0	0	5
{name:Camden,age:16,taskver:20200413.2-rtpen+endQ}	Camden	16	20200413.2-rtpen+endQ	debugtBupz	177	540	p11	1	F	1	R	NA			37	1	50	34	debugtBupz_16_Camden	354	2	1	0	5
{name:Camden,age:16,taskver:20200413.2-rtpen+endQ}	Camden	16	20200413.2-rtpen+endQ	debugtBupz	178	460	p11	1	D	1	F	NA			37	1	50	45	debugtBupz_16_Camden	356	1	0	0	5
{name:Camden,age:16,taskver:20200413.2-rtpen+endQ}	Camden	16	20200413.2-rtpen+endQ	debugtBupz	179	357	p11	1	F	1	D	NA			37	1	50	48	debugtBupz_16_Camden	358	1	0	1	5
{name:Camden,age:16,taskver:20200413.2-rtpen+endQ}	Camden	16	20200413.2-rtpen+endQ	debugtBupz	180	373	p11	1	D	1	F	NA			37	1	50	48	debugtBupz_16_Camden	360	1	0	0	5
{name:Camden,age:16,taskver:20200413.2-rtpen+endQ}	Camden	16	20200413.2-rtpen+endQ	debugtBupz	181	381	p11	1	F	1	D	NA			37	1	50	47	debugtBupz_16_Camden	362	1	0	1	5
{name:Camden,age:16,taskver:20200413.2-rtpen+endQ}	Camden	16	20200413.2-rtpen+endQ	debugtBupz	182	510	p11	1	D	1	R	NA			37	1	50	35	debugtBupz_16_Camden	364	2	1	0	5
{name:Camden,age:16,taskver:20200413.2-rtpen+endQ}	Camden	16	20200413.2-rtpen+endQ	debugtBupz	183	461	p11	1	F	1	D	NA			37	1	50	45	debugtBupz_16_Camden	366	1	0	1	5
{name:Camden,age:16,taskver:20200413.2-rtpen+endQ}	Camden	16	20200413.2-rtpen+endQ	debugtBupz	184	560	p11	1	R	1	D	NA			37	1	50	43	debugtBupz_16_Camden	368	1	0	1	5
{name:Camden,age:16,taskver:20200413.2-rtpen+endQ}	Camden	16	20200413.2-rtpen+endQ	debugtBupz	185	454	p11	1	D	1	F	NA			37	1	50	46	debugtBupz_16_Camden	370	1	0	0	5
{name:Camden,age:16,taskver:20200413.2-rtpen+endQ}	Camden	16	20200413.2-rtpen+endQ	debugtBupz	186	494	p11	1	F	1	R	NA			39	1	50	36	debugtBupz_16_Camden	372	2	1	0	5
{name:Camden,age:16,taskver:20200413.2-rtpen+endQ}	Camden	16	20200413.2-rtpen+endQ	debugtBupz	187	525	p11	1	D	1	F	NA			37	1	50	44	debugtBupz_16_Camden	374	1	0	0	5
{name:Camden,age:16,taskver:20200413.2-rtpen+endQ}	Camden	16	20200413.2-rtpen+endQ	debugtBupz	188	436	p11	1	F	1	D	NA			37	1	50	46	debugtBupz_16_Camden	376	1	0	1	5
{name:Camden,age:16,taskver:20200413.2-rtpen+endQ}	Camden	16	20200413.2-rtpen+endQ	debugtBupz	189	392	p11	1	F	1	D	NA			37	1	50	47	debugtBupz_16_Camden	378	1	0	1	5
{name:Camden,age:16,taskver:20200413.2-rtpen+endQ}	Camden	16	20200413.2-rtpen+endQ	debugtBupz	190	430	p11	1	D	1	F	NA			37	1	50	46	debugtBupz_16_Camden	380	1	0	0	5
{name:Camden,age:16,taskver:20200413.2-rtpen+endQ}	Camden	16	20200413.2-rtpen+endQ	debugtBupz	191	461	p11	1	D	1	F	NA			37	1	50	45	debugtBupz_16_Camden	382	1	0	0	5
{name:Camden,age:16,taskver:20200413.2-rtpen+endQ}	Camden	16	20200413.2-rtpen+endQ	debugtBupz	192	317	p11	1	D	1	F	NA			37	1	50	49	debugtBupz_16_Camden	384	1	0	0	5
{name:Camden,age:16,taskver:20200413.2-rtpen+endQ}	Camden	16	20200413.2-rtpen+endQ	debugtBupz	193	373	p11	1	D	1	F	NA			37	1	50	48	debugtBupz_16_Camden	386	1	0	0	5
{name:Camden,age:16,taskver:20200413.2-rtpen+endQ}	Camden	16	20200413.2-rtpen+endQ	debugtBupz	194	311	p11	1	D	1	F	NA			37	1	50	49	debugtBupz_16_Camden	388	1	0	0	5
{name:Camden,age:16,taskver:20200413.2-rtpen+endQ}	Camden	16	20200413.2-rtpen+endQ	debugtBupz	195	422	p11	1	F	1	D	NA			37	1	50	46	debugtBupz_16_Camden	390	1	0	1	5
{name:Camden,age:16,taskver:20200413.2-rtpen+endQ}	Camden	16	20200413.2-rtpen+endQ	debugtBupz	196	373	p11	1	D	1	F	NA			37	1	50	48	debugtBupz_16_Camden	392	1	0	0	5
{name:Camden,age:16,taskver:20200413.2-rtpen+endQ}	Camden	16	20200413.2-rtpen+endQ	debugtBupz	197	405	p11	1	F	1	D	NA			37	1	50	47	debugtBupz_16_Camden	394	1	0	1	5
{name:Camden,age:16,taskver:20200413.2-rtpen+endQ}	Camden	16	20200413.2-rtpen+endQ	debugtBupz	198	383	p11	1	F	1	D	NA			37	1	50	47	debugtBupz_16_Camden	396	1	0	1	5
{name:Camden,age:16,taskver:20200413.2-rtpen+endQ}	Camden	16	20200413.2-rtpen+endQ	debugtBupz	199	443	p11	1	D	1	F	NA			37	1	50	46	debugtBupz_16_Camden	398	1	0	0	5
{name:Camden,age:16,taskver:20200413.2-rtpen+endQ}	Camden	16	20200413.2-rtpen+endQ	debugtBupz	200	477	p11	1	F	1	R	NA			37	1	50	36	debugtBupz_16_Camden	400	2	1	0	5
{name:Camden,age:16,taskver:20200413.2-rtpen+endQ}	Camden	16	20200413.2-rtpen+endQ	debugtBupz	201	469	p11	1	D	1	F	NA			37	1	50	45	debugtBupz_16_Camden	402	1	0	0	5
{name:Camden,age:16,taskver:20200413.2-rtpen+endQ}	Camden	16	20200413.2-rtpen+endQ	debugtBupz	202	388	p11	1	F	1	D	NA			37	1	50	47	debugtBupz_16_Camden	404	1	0	1	5
{name:Camden,age:16,taskver:20200413.2-rtpen+endQ}	Camden	16	20200413.2-rtpen+endQ	debugtBupz	203	325	p11	1	D	1	F	NA			37	1	50	49	debugtBupz_16_Camden	406	1	0	0	5
{name:Camden,age:16,taskver:20200413.2-rtpen+endQ}	Camden	16	20200413.2-rtpen+endQ	debugtBupz	204	352	p11	1	D	1	F	NA			37	1	50	48	debugtBupz_16_Camden	408	1	0	0	5
{name:Camden,age:16,taskver:20200413.2-rtpen+endQ}	Camden	16	20200413.2-rtpen+endQ	debugtBupz	205	383	p11	1	D	1	F	NA			37	1	50	47	debugtBupz_16_Camden	410	1	0	0	5
{name:Camden,age:16,taskver:20200413.2-rtpen+endQ}	Camden	16	20200413.2-rtpen+endQ	debugtBupz	206	421	p11	1	R	1	D	NA			37	1	50	46	debugtBupz_16_Camden	412	1	0	1	5
{name:Camden,age:16,taskver:20200413.2-rtpen+endQ}	Camden	16	20200413.2-rtpen+endQ	debugtBupz	207	367	p11	1	F	1	D	NA			37	1	50	48	debugtBupz_16_Camden	414	1	0	1	5
{name:Camden,age:16,taskver:20200413.2-rtpen+endQ}	Camden	16	20200413.2-rtpen+endQ	debugtBupz	208	381	p11	1	D	1	F	NA			37	1	50	47	debugtBupz_16_Camden	416	1	0	0	5
{name:Camden,age:16,taskver:20200413.2-rtpen+endQ}	Camden	16	20200413.2-rtpen+endQ	debugtBupz	209	430	p11	1	F	1	R	NA			39	1	50	37	debugtBupz_16_Camden	418	2	1	0	5
{name:Camden,age:16,taskver:20200413.2-rtpen+endQ}	Camden	16	20200413.2-rtpen+endQ	debugtBupz	210	396	p11	1	F	1	D	NA			37	1	50	47	debugtBupz_16_Camden	420	1	0	1	5
{name:Camden,age:16,taskver:20200413.2-rtpen+endQ}	Camden	16	20200413.2-rtpen+endQ	debugtBupz	211	307	p11	1	F	1	D	NA			37	1	50	49	debugtBupz_16_Camden	422	1	0	1	5
{name:Camden,age:16,taskver:20200413.2-rtpen+endQ}	Camden	16	20200413.2-rtpen+endQ	debugtBupz	212	366	p11	1	F	1	D	NA			37	1	50	48	debugtBupz_16_Camden	424	1	0	1	5
{name:Camden,age:16,taskver:20200413.2-rtpen+endQ}	Camden	16	20200413.2-rtpen+endQ	debugtBupz	213	310	p11	1	F	1	D	NA			37	1	50	49	debugtBupz_16_Camden	426	1	0	1	5
{name:Camden,age:16,taskver:20200413.2-rtpen+endQ}	Camden	16	20200413.2-rtpen+endQ	debugtBupz	214	365	p11	1	F	1	D	NA			37	1	50	48	debugtBupz_16_Camden	428	1	0	1	5
{name:Camden,age:16,taskver:20200413.2-rtpen+endQ}	Camden	16	20200413.2-rtpen+endQ	debugtBupz	215	348	p11	1	F	1	D	NA			37	1	50	48	debugtBupz_16_Camden	430	1	0	1	5
{name:Camden,age:16,taskver:20200413.2-rtpen+endQ}	Camden	16	20200413.2-rtpen+endQ	debugtBupz	216	486	p11	1	F	1	R	NA			39	1	50	36	debugtBupz_16_Camden	432	2	1	0	5
{name:Camden,age:16,taskver:20200413.2-rtpen+endQ}	Camden	16	20200413.2-rtpen+endQ	debugtBupz	217	412	p11	1	D	1	F	NA			37	1	50	47	debugtBupz_16_Camden	434	1	0	0	5
{name:Camden,age:16,taskver:20200413.2-rtpen+endQ}	Camden	16	20200413.2-rtpen+endQ	debugtBupz	218	422	p11	1	D	1	F	NA			37	1	50	46	debugtBupz_16_Camden	436	1	0	0	5
{name:Camden,age:16,taskver:20200413.2-rtpen+endQ}	Camden	16	20200413.2-rtpen+endQ	debugtBupz	219	374	p11	1	D	1	F	NA			37	1	50	48	debugtBupz_16_Camden	438	1	0	0	5
{name:Camden,age:16,taskver:20200413.2-rtpen+endQ}	Camden	16	20200413.2-rtpen+endQ	debugtBupz	220	341	p11	1	D	1	F	NA			37	1	50	48	debugtBupz_16_Camden	440	1	0	0	5
{name:Camden,age:16,taskver:20200413.2-rtpen+endQ}	Camden	16	20200413.2-rtpen+endQ	debugtBupz	221	360	p11	1	F	1	R	NA			37	1	50	39	debugtBupz_16_Camden	442	2	1	0	5
{name:Camden,age:16,taskver:20200413.2-rtpen+endQ}	Camden	16	20200413.2-rtpen+endQ	debugtBupz	222	301	p11	1	D	1	F	NA			37	1	50	49	debugtBupz_16_Camden	444	1	0	0	5
{name:Camden,age:16,taskver:20200413.2-rtpen+endQ}	Camden	16	20200413.2-rtpen+endQ	debugtBupz	223	285	p11	1	F	1	D	NA			37	1	50	49	debugtBupz_16_Camden	446	1	0	1	5
{name:Camden,age:16,taskver:20200413.2-rtpen+endQ}	Camden	16	20200413.2-rtpen+endQ	debugtBupz	224	334	p11	1	F	1	D	NA			37	1	50	49	debugtBupz_16_Camden	448	1	0	1	5
{name:Camden,age:16,taskver:20200413.2-rtpen+endQ}	Camden	16	20200413.2-rtpen+endQ	debugtBupz	225	300	p11	1	D	1	R	NA			37	1	50	40	debugtBupz_16_Camden	450	2	1	0	5
{name:Camden,age:16,taskver:20200413.2-rtpen+endQ}	Camden	16	20200413.2-rtpen+endQ	debugtBupz	226	284	p11	1	D	1	F	NA			37	1	50	49	debugtBupz_16_Camden	452	1	0	0	5
{name:Camden,age:16,taskver:20200413.2-rtpen+endQ}	Camden	16	20200413.2-rtpen+endQ	debugtBupz	227	429	p11	1	F	1	R	NA			37	1	50	37	debugtBupz_16_Camden	454	2	1	0	5
{name:Camden,age:16,taskver:20200413.2-rtpen+endQ}	Camden	16	20200413.2-rtpen+endQ	debugtBupz	228	381	p11	1	F	1	D	NA			37	1	50	47	debugtBupz_16_Camden	456	1	0	1	5
{name:Camden,age:16,taskver:20200413.2-rtpen+endQ}	Camden	16	20200413.2-rtpen+endQ	debugtBupz	229	294	p11	1	F	1	D	NA			37	1	50	49	debugtBupz_16_Camden	458	1	0	1	5
{name:Camden,age:16,taskver:20200413.2-rtpen+endQ}	Camden	16	20200413.2-rtpen+endQ	debugtBupz	230	229	p11	1	D	1	F	NA			37	1	50	49	debugtBupz_16_Camden	460	1	0	0	5
{name:Camden,age:16,taskver:20200413.2-rtpen+endQ}	Camden	16	20200413.2-rtpen+endQ	debugtBupz	231	332	p11	1	F	1	D	NA			37	1	50	49	debugtBupz_16_Camden	462	1	0	1	5
{name:Camden,age:16,taskver:20200413.2-rtpen+endQ}	Camden	16	20200413.2-rtpen+endQ	debugtBupz	232	348	p11	1	F	1	D	NA			37	1	50	48	debugtBupz_16_Camden	464	1	0	1	5
{name:Camden,age:16,taskver:20200413.2-rtpen+endQ}	Camden	16	20200413.2-rtpen+endQ	debugtBupz	233	341	p11	1	F	1	D	NA			37	1	50	48	debugtBupz_16_Camden	466	1	0	1	5
{name:Camden,age:16,taskver:20200413.2-rtpen+endQ}	Camden	16	20200413.2-rtpen+endQ	debugtBupz	234	333	p11	1	R	1	D	NA			37	1	50	49	debugtBupz_16_Camden	468	1	0	1	5
{name:Camden,age:16,taskver:20200413.2-rtpen+endQ}	Camden	16	20200413.2-rtpen+endQ	debugtBupz	235	301	p11	1	D	1	F	NA			37	1	50	49	debugtBupz_16_Camden	470	1	0	0	5
{name:Camden,age:16,taskver:20200413.2-rtpen+endQ}	Camden	16	20200413.2-rtpen+endQ	debugtBupz	236	236	p11	1	F	1	D	NA			37	1	50	49	debugtBupz_16_Camden	472	1	0	1	5
{name:Camden,age:16,taskver:20200413.2-rtpen+endQ}	Camden	16	20200413.2-rtpen+endQ	debugtBupz	237	311	p11	1	F	1	D	NA			37	1	50	49	debugtBupz_16_Camden	474	1	0	1	5
{name:Camden,age:16,taskver:20200413.2-rtpen+endQ}	Camden	16	20200413.2-rtpen+endQ	debugtBupz	238	311	p11	1	F	1	D	NA			37	1	50	49	debugtBupz_16_Camden	476	1	0	1	5
{name:Camden,age:16,taskver:20200413.2-rtpen+endQ}	Camden	16	20200413.2-rtpen+endQ	debugtBupz	239	341	p11	1	D	1	F	NA			37	1	50	48	debugtBupz_16_Camden	478	1	0	0	5
{name:Camden,age:16,taskver:20200413.2-rtpen+endQ}	Camden	16	20200413.2-rtpen+endQ	debugtBupz	240	254	p11	1	R	1	D	NA			37	1	50	49	debugtBupz_16_Camden	480	1	0	1	5
{name:Doug,age:26,taskver:20200410.2-blk40+inst}	Doug	26	20200410.2-blk40+inst	debugnvZPE	1	4845.27499997057	p28	1	R	0.2	F	NA			37	0.2	500	490	debugnvZPE_26_Doug	2	1	0	0	1
{name:Doug,age:26,taskver:20200410.2-blk40+inst}	Doug	26	20200410.2-blk40+inst	debugnvZPE	2	1954.50500003062	p28	0.8	D	0.2	F	NA			39	0.2	0	-10	debugnvZPE_26_Doug	4	1	0	0	1
{name:Doug,age:26,taskver:20200410.2-blk40+inst}	Doug	26	20200410.2-blk40+inst	debugnvZPE	3	1525.5200000247	p28	0.8	D	0.2	F	NA			37	0.2	0	-10	debugnvZPE_26_Doug	6	1	0	0	1
{name:Doug,age:26,taskver:20200410.2-blk40+inst}	Doug	26	20200410.2-blk40+inst	debugnvZPE	4	4018.26499996241	p28	0.8	D	0.2	F	NA			37	0.2	0	-10	debugnvZPE_26_Doug	8	1	0	0	1
{name:Doug,age:26,taskver:20200410.2-blk40+inst}	Doug	26	20200410.2-blk40+inst	debugnvZPE	5	3708.41999992263	p28	0.2	F	0.8	D	NA			37	0.8	500	490	debugnvZPE_26_Doug	10	1	0	1	1
{name:Doug,age:26,taskver:20200410.2-blk40+inst}	Doug	26	20200410.2-blk40+inst	debugnvZPE	6	3027.78000000399	p28	0.2	F	0.8	D	NA			37	0.8	500	490	debugnvZPE_26_Doug	12	1	0	1	1
{name:Doug,age:26,taskver:20200410.2-blk40+inst}	Doug	26	20200410.2-blk40+inst	debugnvZPE	7	1292.13499999605	p28	0.2	F	0.8	D	NA			37	0.8	500	490	debugnvZPE_26_Doug	14	1	0	1	1
{name:Doug,age:26,taskver:20200410.2-blk40+inst}	Doug	26	20200410.2-blk40+inst	debugnvZPE	8	1285.40499997325	p28	0.2	F	0.8	D	NA			39	0.8	0	-10	debugnvZPE_26_Doug	16	1	0	1	1
{name:Doug,age:26,taskver:20200410.2-blk40+inst}	Doug	26	20200410.2-blk40+inst	debugnvZPE	9	1860.54500006139	p28	0.2	F	0.8	D	NA			37	0.8	500	490	debugnvZPE_26_Doug	18	1	0	1	1
{name:Doug,age:26,taskver:20200410.2-blk40+inst}	Doug	26	20200410.2-blk40+inst	debugnvZPE	10	1743.59500000719	p28	0.8	D	0.2	F	NA			37	0.2	0	-10	debugnvZPE_26_Doug	20	1	0	0	1
{name:Doug,age:26,taskver:20200410.2-blk40+inst}	Doug	26	20200410.2-blk40+inst	debugnvZPE	11	4621.44499993883	p28	1	R	0.2	F	NA			39	0.2	0	-10	debugnvZPE_26_Doug	22	1	0	0	1
{name:Doug,age:26,taskver:20200410.2-blk40+inst}	Doug	26	20200410.2-blk40+inst	debugnvZPE	12	4617.39499995019	p28	0.2	F	0.8	D	NA			39	0.8	500	490	debugnvZPE_26_Doug	24	1	0	1	1
{name:Doug,age:26,taskver:20200410.2-blk40+inst}	Doug	26	20200410.2-blk40+inst	debugnvZPE	13	1563.00999992527	p28	1	R	0.8	D	NA			37	0.8	500	490	debugnvZPE_26_Doug	26	1	0	1	1
{name:Doug,age:26,taskver:20200410.2-blk40+inst}	Doug	26	20200410.2-blk40+inst	debugnvZPE	14	869.545000023209	p28	0.2	F	0.8	D	NA			37	0.8	500	490	debugnvZPE_26_Doug	28	1	0	1	1
{name:Doug,age:26,taskver:20200410.2-blk40+inst}	Doug	26	20200410.2-blk40+inst	debugnvZPE	15	640.565000008792	p28	0.2	F	0.8	D	NA			37	0.8	500	490	debugnvZPE_26_Doug	30	1	0	1	1
{name:Doug,age:26,taskver:20200410.2-blk40+inst}	Doug	26	20200410.2-blk40+inst	debugnvZPE	16	702.174999983981	p28	0.2	F	0.8	D	NA			39	0.8	500	490	debugnvZPE_26_Doug	32	1	0	1	1
{name:Doug,age:26,taskver:20200410.2-blk40+inst}	Doug	26	20200410.2-blk40+inst	debugnvZPE	17	742.230000090785	p28	0.2	F	0.8	D	NA			37	0.8	500	490	debugnvZPE_26_Doug	34	1	0	1	1
{name:Doug,age:26,taskver:20200410.2-blk40+inst}	Doug	26	20200410.2-blk40+inst	debugnvZPE	18	631.345000001602	p28	0.2	F	0.8	D	NA			39	0.8	0	-10	debugnvZPE_26_Doug	36	1	0	1	1
{name:Doug,age:26,taskver:20200410.2-blk40+inst}	Doug	26	20200410.2-blk40+inst	debugnvZPE	19	1422.49500006437	p28	0.8	D	0.2	F	NA			39	0.2	0	-10	debugnvZPE_26_Doug	38	1	0	0	1
{name:Doug,age:26,taskver:20200410.2-blk40+inst}	Doug	26	20200410.2-blk40+inst	debugnvZPE	20	9117.10499995388	p28	0.2	F	0.8	D	NA			37	0.8	500	490	debugnvZPE_26_Doug	40	1	0	1	1
{name:Doug,age:26,taskver:20200410.2-blk40+inst}	Doug	26	20200410.2-blk40+inst	debugnvZPE	21	969.745000009425	p28	0.2	F	0.8	D	NA			39	0.8	500	490	debugnvZPE_26_Doug	42	1	0	1	1
{name:Doug,age:26,taskver:20200410.2-blk40+inst}	Doug	26	20200410.2-blk40+inst	debugnvZPE	22	2128.82500002161	p28	0.2	F	0.8	D	NA			39	0.8	500	490	debugnvZPE_26_Doug	44	1	0	1	1
{name:Doug,age:26,taskver:20200410.2-blk40+inst}	Doug	26	20200410.2-blk40+inst	debugnvZPE	23	1082.80500001274	p28	0.2	F	0.8	D	NA			39	0.8	500	490	debugnvZPE_26_Doug	46	1	0	1	1
{name:Doug,age:26,taskver:20200410.2-blk40+inst}	Doug	26	20200410.2-blk40+inst	debugnvZPE	24	595.094999996945	p28	0.2	F	0.8	D	NA			37	0.8	500	490	debugnvZPE_26_Doug	48	1	0	1	1
{name:Doug,age:26,taskver:20200410.2-blk40+inst}	Doug	26	20200410.2-blk40+inst	debugnvZPE	25	728.635000064969	p28	0.2	F	0.8	D	NA			37	0.8	500	490	debugnvZPE_26_Doug	50	1	0	1	1
{name:Doug,age:26,taskver:20200410.2-blk40+inst}	Doug	26	20200410.2-blk40+inst	debugnvZPE	26	613.445000024512	p28	0.2	F	0.8	D	NA			39	0.8	500	490	debugnvZPE_26_Doug	52	1	0	1	1
{name:Doug,age:26,taskver:20200410.2-blk40+inst}	Doug	26	20200410.2-blk40+inst	debugnvZPE	27	1178.79999999423	p28	1	R	0.8	D	NA			39	0.8	500	490	debugnvZPE_26_Doug	54	1	0	1	1
{name:Doug,age:26,taskver:20200410.2-blk40+inst}	Doug	26	20200410.2-blk40+inst	debugnvZPE	28	2353.56999991927	p28	0.2	F	0.8	D	NA			37	0.8	500	490	debugnvZPE_26_Doug	56	1	0	1	1
{name:Doug,age:26,taskver:20200410.2-blk40+inst}	Doug	26	20200410.2-blk40+inst	debugnvZPE	29	1889.3200000748	p28	0.2	F	1	R	NA			37	1	500	400	debugnvZPE_26_Doug	58	2	1	0	1
{name:Doug,age:26,taskver:20200410.2-blk40+inst}	Doug	26	20200410.2-blk40+inst	debugnvZPE	30	2309.43999998271	p28	0.2	F	0.8	D	NA			37	0.8	500	490	debugnvZPE_26_Doug	60	1	0	1	1
