subjInfo	name	age	taskver	subjID	trial	rt	leftP	leftCard	key	block	rightP	rightCard	choice	pts	ses_id	abstrial	choiceCard	choiceType	choseRed	blocknum	firstGood	choseFirst
{name:Anna,age:27,taskver:20200413.2-rtpen+endQ}	Anna	27	20200413.2-rtpen+endQ	debugis2Bb	1	1327.99999997951	0.8	D	39	p28	0.2	F	0.2	50	debugis2Bb_27_Anna	2	F	1	0	1	D	0
{name:Anna,age:27,taskver:20200413.2-rtpen+endQ}	Anna	27	20200413.2-rtpen+endQ	debugis2Bb	2	1022.99999981187	0.2	F	37	p28	0.8	D	0.2	0	debugis2Bb_27_Anna	4	F	1	0	1	D	0
{name:Anna,age:27,taskver:20200413.2-rtpen+endQ}	Anna	27	20200413.2-rtpen+endQ	debugis2Bb	3	1081.99999993667	0.8	D	37	p28	0.2	F	0.8	0	debugis2Bb_27_Anna	6	D	1	0	1	D	1
{name:Anna,age:27,taskver:20200413.2-rtpen+endQ}	Anna	27	20200413.2-rtpen+endQ	debugis2Bb	4	904.000000096858	0.8	D	39	p28	0.2	F	0.2	50	debugis2Bb_27_Anna	8	F	1	0	1	D	0
{name:Anna,age:27,taskver:20200413.2-rtpen+endQ}	Anna	27	20200413.2-rtpen+endQ	debugis2Bb	5	672.999999951571	0.8	D	39	p28	0.2	F	0.2	50	debugis2Bb_27_Anna	10	F	1	0	1	D	0
{name:Anna,age:27,taskver:20200413.2-rtpen+endQ}	Anna	27	20200413.2-rtpen+endQ	debugis2Bb	6	675.000000046566	1	R	39	p28	0.2	F	0.2	0	debugis2Bb_27_Anna	12	F	2	0	1	D	0
{name:Anna,age:27,taskver:20200413.2-rtpen+endQ}	Anna	27	20200413.2-rtpen+endQ	debugis2Bb	7	927.999999839813	0.8	D	39	p28	0.2	F	0.2	0	debugis2Bb_27_Anna	14	F	1	0	1	D	0
{name:Anna,age:27,taskver:20200413.2-rtpen+endQ}	Anna	27	20200413.2-rtpen+endQ	debugis2Bb	8	619.999999878928	0.8	D	37	p28	0.2	F	0.8	50	debugis2Bb_27_Anna	16	D	1	0	1	D	1
{name:Anna,age:27,taskver:20200413.2-rtpen+endQ}	Anna	27	20200413.2-rtpen+endQ	debugis2Bb	9	696.999999927357	0.8	D	37	p28	0.2	F	0.8	50	debugis2Bb_27_Anna	18	D	1	0	1	D	1
{name:Anna,age:27,taskver:20200413.2-rtpen+endQ}	Anna	27	20200413.2-rtpen+endQ	debugis2Bb	10	870.000000111759	0.2	F	39	p28	0.8	D	0.8	50	debugis2Bb_27_Anna	20	D	1	0	1	D	1
{name:Anna,age:27,taskver:20200413.2-rtpen+endQ}	Anna	27	20200413.2-rtpen+endQ	debugis2Bb	11	1084.99999996275	0.2	F	39	p28	1	R	1	50	debugis2Bb_27_Anna	22	R	2	1	1	D	0
{name:Anna,age:27,taskver:20200413.2-rtpen+endQ}	Anna	27	20200413.2-rtpen+endQ	debugis2Bb	12	1134.00000007823	0.2	F	39	p28	0.8	D	0.8	50	debugis2Bb_27_Anna	24	D	1	0	1	D	1
{name:Anna,age:27,taskver:20200413.2-rtpen+endQ}	Anna	27	20200413.2-rtpen+endQ	debugis2Bb	13	617.999999783933	1	R	39	p28	0.8	D	0.8	50	debugis2Bb_27_Anna	26	D	2	0	1	D	1
{name:Anna,age:27,taskver:20200413.2-rtpen+endQ}	Anna	27	20200413.2-rtpen+endQ	debugis2Bb	14	827.000000048429	0.8	D	37	p28	0.2	F	0.8	50	debugis2Bb_27_Anna	28	D	1	0	1	D	1
{name:Anna,age:27,taskver:20200413.2-rtpen+endQ}	Anna	27	20200413.2-rtpen+endQ	debugis2Bb	15	780.999999959022	0.2	F	39	p28	0.8	D	0.8	50	debugis2Bb_27_Anna	30	D	1	0	1	D	1
{name:Anna,age:27,taskver:20200413.2-rtpen+endQ}	Anna	27	20200413.2-rtpen+endQ	debugis2Bb	16	664.000000106171	0.8	D	37	p28	1	R	0.8	50	debugis2Bb_27_Anna	32	D	2	0	1	D	1
{name:Anna,age:27,taskver:20200413.2-rtpen+endQ}	Anna	27	20200413.2-rtpen+endQ	debugis2Bb	17	716.000000014901	0.8	D	37	p28	0.2	F	0.8	50	debugis2Bb_27_Anna	34	D	1	0	1	D	1
{name:Anna,age:27,taskver:20200413.2-rtpen+endQ}	Anna	27	20200413.2-rtpen+endQ	debugis2Bb	18	936.999999918044	0.2	F	37	p28	1	R	0.2	50	debugis2Bb_27_Anna	36	F	2	0	1	D	0
{name:Anna,age:27,taskver:20200413.2-rtpen+endQ}	Anna	27	20200413.2-rtpen+endQ	debugis2Bb	19	1034.99999991618	0.2	F	39	p28	0.8	D	0.8	50	debugis2Bb_27_Anna	38	D	1	0	1	D	1
{name:Anna,age:27,taskver:20200413.2-rtpen+endQ}	Anna	27	20200413.2-rtpen+endQ	debugis2Bb	20	657.999999821186	0.2	F	39	p28	0.8	D	0.8	50	debugis2Bb_27_Anna	40	D	1	0	1	D	1
{name:Anna,age:27,taskver:20200413.2-rtpen+endQ}	Anna	27	20200413.2-rtpen+endQ	debugis2Bb	21	614.999999990687	0.2	F	39	p28	0.8	D	0.8	50	debugis2Bb_27_Anna	42	D	1	0	1	D	1
{name:Anna,age:27,taskver:20200413.2-rtpen+endQ}	Anna	27	20200413.2-rtpen+endQ	debugis2Bb	22	615.999999921769	0.2	F	39	p28	0.8	D	0.8	50	debugis2Bb_27_Anna	44	D	1	0	1	D	1
{name:Anna,age:27,taskver:20200413.2-rtpen+endQ}	Anna	27	20200413.2-rtpen+endQ	debugis2Bb	23	516.000000061467	0.2	F	39	p28	0.8	D	0.8	50	debugis2Bb_27_Anna	46	D	1	0	1	D	1
{name:Anna,age:27,taskver:20200413.2-rtpen+endQ}	Anna	27	20200413.2-rtpen+endQ	debugis2Bb	24	644.000000087544	0.8	D	37	p28	0.2	F	0.8	50	debugis2Bb_27_Anna	48	D	1	0	1	D	1
{name:Anna,age:27,taskver:20200413.2-rtpen+endQ}	Anna	27	20200413.2-rtpen+endQ	debugis2Bb	25	534.999999916181	0.2	F	39	p28	0.8	D	0.8	50	debugis2Bb_27_Anna	50	D	1	0	1	D	1
{name:Anna,age:27,taskver:20200413.2-rtpen+endQ}	Anna	27	20200413.2-rtpen+endQ	debugis2Bb	26	513.999999966472	0.2	F	39	p28	0.8	D	0.8	50	debugis2Bb_27_Anna	52	D	1	0	1	D	1
{name:Anna,age:27,taskver:20200413.2-rtpen+endQ}	Anna	27	20200413.2-rtpen+endQ	debugis2Bb	27	682.999999960884	1	R	39	p28	0.8	D	0.8	50	debugis2Bb_27_Anna	54	D	2	0	1	D	1
{name:Anna,age:27,taskver:20200413.2-rtpen+endQ}	Anna	27	20200413.2-rtpen+endQ	debugis2Bb	28	572.000000160187	0.2	F	39	p28	0.8	D	0.8	50	debugis2Bb_27_Anna	56	D	1	0	1	D	1
{name:Anna,age:27,taskver:20200413.2-rtpen+endQ}	Anna	27	20200413.2-rtpen+endQ	debugis2Bb	29	586.00000012666	1	R	37	p28	0.2	F	1	50	debugis2Bb_27_Anna	58	R	2	1	1	D	0
{name:Anna,age:27,taskver:20200413.2-rtpen+endQ}	Anna	27	20200413.2-rtpen+endQ	debugis2Bb	30	611.000000033528	0.2	F	39	p28	0.8	D	0.8	50	debugis2Bb_27_Anna	60	D	1	0	1	D	1
{name:Anna,age:27,taskver:20200413.2-rtpen+endQ}	Anna	27	20200413.2-rtpen+endQ	debugis2Bb	31	614.999999990687	0.2	F	39	p28	0.8	D	0.8	0	debugis2Bb_27_Anna	62	D	1	0	1	D	1
{name:Anna,age:27,taskver:20200413.2-rtpen+endQ}	Anna	27	20200413.2-rtpen+endQ	debugis2Bb	32	637.000000104308	0.8	D	37	p28	0.2	F	0.8	50	debugis2Bb_27_Anna	64	D	1	0	1	D	1
{name:Anna,age:27,taskver:20200413.2-rtpen+endQ}	Anna	27	20200413.2-rtpen+endQ	debugis2Bb	33	593.000000109896	0.2	F	39	p28	0.8	D	0.8	50	debugis2Bb_27_Anna	66	D	1	0	1	D	1
{name:Anna,age:27,taskver:20200413.2-rtpen+endQ}	Anna	27	20200413.2-rtpen+endQ	debugis2Bb	34	657.999999821186	0.8	D	37	p28	1	R	0.8	0	debugis2Bb_27_Anna	68	D	2	0	1	D	1
{name:Anna,age:27,taskver:20200413.2-rtpen+endQ}	Anna	27	20200413.2-rtpen+endQ	debugis2Bb	35	662.999999942258	0.8	D	37	p28	0.2	F	0.8	50	debugis2Bb_27_Anna	70	D	1	0	1	D	1
{name:Anna,age:27,taskver:20200413.2-rtpen+endQ}	Anna	27	20200413.2-rtpen+endQ	debugis2Bb	36	602.999999886379	0.8	D	37	p28	0.2	F	0.8	50	debugis2Bb_27_Anna	72	D	1	0	1	D	1
{name:Anna,age:27,taskver:20200413.2-rtpen+endQ}	Anna	27	20200413.2-rtpen+endQ	debugis2Bb	37	574.000000022352	0.2	F	39	p28	0.8	D	0.8	0	debugis2Bb_27_Anna	74	D	1	0	1	D	1
{name:Anna,age:27,taskver:20200413.2-rtpen+endQ}	Anna	27	20200413.2-rtpen+endQ	debugis2Bb	38	621.000000042841	0.8	D	37	p28	0.2	F	0.8	50	debugis2Bb_27_Anna	76	D	1	0	1	D	1
{name:Anna,age:27,taskver:20200413.2-rtpen+endQ}	Anna	27	20200413.2-rtpen+endQ	debugis2Bb	39	567.999999970198	0.8	D	37	p28	0.2	F	0.8	50	debugis2Bb_27_Anna	78	D	1	0	1	D	1
{name:Anna,age:27,taskver:20200413.2-rtpen+endQ}	Anna	27	20200413.2-rtpen+endQ	debugis2Bb	40	539.999999804422	0.8	D	37	p28	0.2	F	0.8	50	debugis2Bb_27_Anna	80	D	1	0	1	D	1
{name:Anna,age:27,taskver:20200413.2-rtpen+endQ}	Anna	27	20200413.2-rtpen+endQ	debugis2Bb	41	669.999999925494	0.8	F	39	p82	0.2	D	0.2	0	debugis2Bb_27_Anna	82	D	1	0	2	D	1
{name:Anna,age:27,taskver:20200413.2-rtpen+endQ}	Anna	27	20200413.2-rtpen+endQ	debugis2Bb	42	610.000000102445	1	R	39	p82	0.2	D	0.2	0	debugis2Bb_27_Anna	84	D	2	0	2	D	1
{name:Anna,age:27,taskver:20200413.2-rtpen+endQ}	Anna	27	20200413.2-rtpen+endQ	debugis2Bb	43	853.999999817461	0.2	D	37	p82	0.8	F	0.2	50	debugis2Bb_27_Anna	86	D	1	0	2	D	1
{name:Anna,age:27,taskver:20200413.2-rtpen+endQ}	Anna	27	20200413.2-rtpen+endQ	debugis2Bb	44	648.999999975786	0.2	D	37	p82	0.8	F	0.2	0	debugis2Bb_27_Anna	88	D	1	0	2	D	1
{name:Anna,age:27,taskver:20200413.2-rtpen+endQ}	Anna	27	20200413.2-rtpen+endQ	debugis2Bb	45	677.999999839813	0.8	F	39	p82	0.2	D	0.2	50	debugis2Bb_27_Anna	90	D	1	0	2	D	1
{name:Anna,age:27,taskver:20200413.2-rtpen+endQ}	Anna	27	20200413.2-rtpen+endQ	debugis2Bb	46	717.999999877065	0.8	F	39	p82	0.2	D	0.2	0	debugis2Bb_27_Anna	92	D	1	0	2	D	1
{name:Anna,age:27,taskver:20200413.2-rtpen+endQ}	Anna	27	20200413.2-rtpen+endQ	debugis2Bb	47	628.999999957159	0.8	F	39	p82	0.2	D	0.2	0	debugis2Bb_27_Anna	94	D	1	0	2	D	1
{name:Anna,age:27,taskver:20200413.2-rtpen+endQ}	Anna	27	20200413.2-rtpen+endQ	debugis2Bb	48	597.000000067055	0.2	D	37	p82	0.8	F	0.2	50	debugis2Bb_27_Anna	96	D	1	0	2	D	1
{name:Anna,age:27,taskver:20200413.2-rtpen+endQ}	Anna	27	20200413.2-rtpen+endQ	debugis2Bb	49	648.000000044703	0.8	F	39	p82	0.2	D	0.2	50	debugis2Bb_27_Anna	98	D	1	0	2	D	1
{name:Anna,age:27,taskver:20200413.2-rtpen+endQ}	Anna	27	20200413.2-rtpen+endQ	debugis2Bb	50	695.999999996275	0.2	D	37	p82	1	R	0.2	0	debugis2Bb_27_Anna	100	D	2	0	2	D	1
{name:Anna,age:27,taskver:20200413.2-rtpen+endQ}	Anna	27	20200413.2-rtpen+endQ	debugis2Bb	51	747.999999905005	0.2	D	37	p82	0.8	F	0.2	0	debugis2Bb_27_Anna	102	D	1	0	2	D	1
{name:Anna,age:27,taskver:20200413.2-rtpen+endQ}	Anna	27	20200413.2-rtpen+endQ	debugis2Bb	52	598.999999929219	0.2	D	37	p82	1	R	0.2	0	debugis2Bb_27_Anna	104	D	2	0	2	D	1
{name:Anna,age:27,taskver:20200413.2-rtpen+endQ}	Anna	27	20200413.2-rtpen+endQ	debugis2Bb	53	885.999999940395	0.2	D	37	p82	0.8	F	0.2	0	debugis2Bb_27_Anna	106	D	1	0	2	D	1
{name:Anna,age:27,taskver:20200413.2-rtpen+endQ}	Anna	27	20200413.2-rtpen+endQ	debugis2Bb	54	598.999999929219	0.2	D	37	p82	0.8	F	0.2	50	debugis2Bb_27_Anna	108	D	1	0	2	D	1
{name:Anna,age:27,taskver:20200413.2-rtpen+endQ}	Anna	27	20200413.2-rtpen+endQ	debugis2Bb	55	570.999999996275	1	R	39	p82	0.8	F	0.8	0	debugis2Bb_27_Anna	110	F	2	0	2	D	0
{name:Anna,age:27,taskver:20200413.2-rtpen+endQ}	Anna	27	20200413.2-rtpen+endQ	debugis2Bb	56	911.000000080094	0.8	F	37	p82	0.2	D	0.8	50	debugis2Bb_27_Anna	112	F	1	0	2	D	0
{name:Anna,age:27,taskver:20200413.2-rtpen+endQ}	Anna	27	20200413.2-rtpen+endQ	debugis2Bb	57	967.000000178814	0.2	D	37	p82	0.8	F	0.2	0	debugis2Bb_27_Anna	114	D	1	0	2	D	1
{name:Anna,age:27,taskver:20200413.2-rtpen+endQ}	Anna	27	20200413.2-rtpen+endQ	debugis2Bb	58	978.000000119209	0.2	D	39	p82	0.8	F	0.8	0	debugis2Bb_27_Anna	116	F	1	0	2	D	0
{name:Anna,age:27,taskver:20200413.2-rtpen+endQ}	Anna	27	20200413.2-rtpen+endQ	debugis2Bb	59	596.999999834225	0.2	D	37	p82	0.8	F	0.2	0	debugis2Bb_27_Anna	118	D	1	0	2	D	1
{name:Anna,age:27,taskver:20200413.2-rtpen+endQ}	Anna	27	20200413.2-rtpen+endQ	debugis2Bb	60	613.000000128523	0.2	D	37	p82	0.8	F	0.2	0	debugis2Bb_27_Anna	120	D	1	0	2	D	1
{name:Anna,age:27,taskver:20200413.2-rtpen+endQ}	Anna	27	20200413.2-rtpen+endQ	debugis2Bb	61	1042.00000013225	0.8	F	39	p82	0.2	D	0.2	50	debugis2Bb_27_Anna	122	D	1	0	2	D	1
{name:Anna,age:27,taskver:20200413.2-rtpen+endQ}	Anna	27	20200413.2-rtpen+endQ	debugis2Bb	62	639.999999897555	0.8	F	39	p82	0.2	D	0.2	0	debugis2Bb_27_Anna	124	D	1	0	2	D	1
{name:Anna,age:27,taskver:20200413.2-rtpen+endQ}	Anna	27	20200413.2-rtpen+endQ	debugis2Bb	63	557.999999960884	0.8	F	39	p82	0.2	D	0.2	0	debugis2Bb_27_Anna	126	D	1	0	2	D	1
{name:Anna,age:27,taskver:20200413.2-rtpen+endQ}	Anna	27	20200413.2-rtpen+endQ	debugis2Bb	64	641.000000061467	0.8	F	39	p82	0.2	D	0.2	0	debugis2Bb_27_Anna	128	D	1	0	2	D	1
{name:Anna,age:27,taskver:20200413.2-rtpen+endQ}	Anna	27	20200413.2-rtpen+endQ	debugis2Bb	65	570.999999996275	0.8	F	37	p82	0.2	D	0.8	50	debugis2Bb_27_Anna	130	F	1	0	2	D	0
{name:Anna,age:27,taskver:20200413.2-rtpen+endQ}	Anna	27	20200413.2-rtpen+endQ	debugis2Bb	66	829.999999841675	0.2	D	39	p82	0.8	F	0.8	50	debugis2Bb_27_Anna	132	F	1	0	2	D	0
{name:Anna,age:27,taskver:20200413.2-rtpen+endQ}	Anna	27	20200413.2-rtpen+endQ	debugis2Bb	67	820.000000065193	0.8	F	37	p82	0.2	D	0.8	50	debugis2Bb_27_Anna	134	F	1	0	2	D	0
{name:Anna,age:27,taskver:20200413.2-rtpen+endQ}	Anna	27	20200413.2-rtpen+endQ	debugis2Bb	68	841.999999945983	0.8	F	39	p82	1	R	1	50	debugis2Bb_27_Anna	136	R	2	1	2	D	0
{name:Anna,age:27,taskver:20200413.2-rtpen+endQ}	Anna	27	20200413.2-rtpen+endQ	debugis2Bb	69	756.999999983236	0.8	F	39	p82	0.2	D	0.2	0	debugis2Bb_27_Anna	138	D	1	0	2	D	1
{name:Anna,age:27,taskver:20200413.2-rtpen+endQ}	Anna	27	20200413.2-rtpen+endQ	debugis2Bb	70	701.000000117347	0.8	F	37	p82	1	R	0.8	50	debugis2Bb_27_Anna	140	F	2	0	2	D	0
{name:Anna,age:27,taskver:20200413.2-rtpen+endQ}	Anna	27	20200413.2-rtpen+endQ	debugis2Bb	71	678.000000072643	1	R	39	p82	0.2	D	0.2	0	debugis2Bb_27_Anna	142	D	2	0	2	D	1
{name:Anna,age:27,taskver:20200413.2-rtpen+endQ}	Anna	27	20200413.2-rtpen+endQ	debugis2Bb	72	722.999999998137	0.2	D	37	p82	0.8	F	0.2	0	debugis2Bb_27_Anna	144	D	1	0	2	D	1
{name:Anna,age:27,taskver:20200413.2-rtpen+endQ}	Anna	27	20200413.2-rtpen+endQ	debugis2Bb	73	661.000000080094	0.2	D	37	p82	0.8	F	0.2	0	debugis2Bb_27_Anna	146	D	1	0	2	D	1
{name:Anna,age:27,taskver:20200413.2-rtpen+endQ}	Anna	27	20200413.2-rtpen+endQ	debugis2Bb	74	639.999999897555	0.8	F	39	p82	0.2	D	0.2	0	debugis2Bb_27_Anna	148	D	1	0	2	D	1
{name:Anna,age:27,taskver:20200413.2-rtpen+endQ}	Anna	27	20200413.2-rtpen+endQ	debugis2Bb	75	813.000000081956	0.2	D	37	p82	0.8	F	0.2	0	debugis2Bb_27_Anna	150	D	1	0	2	D	1
{name:Anna,age:27,taskver:20200413.2-rtpen+endQ}	Anna	27	20200413.2-rtpen+endQ	debugis2Bb	76	583.000000100583	0.2	D	39	p82	0.8	F	0.8	50	debugis2Bb_27_Anna	152	F	1	0	2	D	0
{name:Anna,age:27,taskver:20200413.2-rtpen+endQ}	Anna	27	20200413.2-rtpen+endQ	debugis2Bb	77	844.000000040978	0.2	D	39	p82	0.8	F	0.8	0	debugis2Bb_27_Anna	154	F	1	0	2	D	0
{name:Anna,age:27,taskver:20200413.2-rtpen+endQ}	Anna	27	20200413.2-rtpen+endQ	debugis2Bb	78	652.999999932945	0.8	F	37	p82	0.2	D	0.8	50	debugis2Bb_27_Anna	156	F	1	0	2	D	0
{name:Anna,age:27,taskver:20200413.2-rtpen+endQ}	Anna	27	20200413.2-rtpen+endQ	debugis2Bb	79	708.000000100583	0.8	F	37	p82	0.2	D	0.8	0	debugis2Bb_27_Anna	158	F	1	0	2	D	0
{name:Anna,age:27,taskver:20200413.2-rtpen+endQ}	Anna	27	20200413.2-rtpen+endQ	debugis2Bb	80	608.000000007451	1	R	39	p82	0.8	F	0.8	50	debugis2Bb_27_Anna	160	F	2	0	2	D	0
{name:Anna,age:27,taskver:20200413.2-rtpen+endQ}	Anna	27	20200413.2-rtpen+endQ	debugis2Bb	81	686.000000219792	0.8	D	37	p28	0.2	F	0.8	50	debugis2Bb_27_Anna	162	D	1	0	3	D	1
{name:Anna,age:27,taskver:20200413.2-rtpen+endQ}	Anna	27	20200413.2-rtpen+endQ	debugis2Bb	82	695.000000065193	0.2	F	39	p28	0.8	D	0.8	0	debugis2Bb_27_Anna	164	D	1	0	3	D	1
{name:Anna,age:27,taskver:20200413.2-rtpen+endQ}	Anna	27	20200413.2-rtpen+endQ	debugis2Bb	83	497.999999905005	0.8	D	37	p28	0.2	F	0.8	50	debugis2Bb_27_Anna	166	D	1	0	3	D	1
{name:Anna,age:27,taskver:20200413.2-rtpen+endQ}	Anna	27	20200413.2-rtpen+endQ	debugis2Bb	84	520.999999949709	0.2	F	39	p28	0.8	D	0.8	50	debugis2Bb_27_Anna	168	D	1	0	3	D	1
{name:Anna,age:27,taskver:20200413.2-rtpen+endQ}	Anna	27	20200413.2-rtpen+endQ	debugis2Bb	85	653.999999864027	0.8	D	37	p28	0.2	F	0.8	50	debugis2Bb_27_Anna	170	D	1	0	3	D	1
{name:Anna,age:27,taskver:20200413.2-rtpen+endQ}	Anna	27	20200413.2-rtpen+endQ	debugis2Bb	86	812.000000150874	0.2	F	39	p28	0.8	D	0.8	50	debugis2Bb_27_Anna	172	D	1	0	3	D	1
{name:Anna,age:27,taskver:20200413.2-rtpen+endQ}	Anna	27	20200413.2-rtpen+endQ	debugis2Bb	87	958.999999798834	0.8	D	39	p28	1	R	1	50	debugis2Bb_27_Anna	174	R	2	1	3	D	0
{name:Anna,age:27,taskver:20200413.2-rtpen+endQ}	Anna	27	20200413.2-rtpen+endQ	debugis2Bb	88	833.000000100583	0.2	F	37	p28	0.8	D	0.2	0	debugis2Bb_27_Anna	176	F	1	0	3	D	0
{name:Anna,age:27,taskver:20200413.2-rtpen+endQ}	Anna	27	20200413.2-rtpen+endQ	debugis2Bb	89	622.000000206754	0.8	D	39	p28	0.2	F	0.2	0	debugis2Bb_27_Anna	178	F	1	0	3	D	0
{name:Anna,age:27,taskver:20200413.2-rtpen+endQ}	Anna	27	20200413.2-rtpen+endQ	debugis2Bb	90	925.000000046566	0.2	F	39	p28	0.8	D	0.8	50	debugis2Bb_27_Anna	180	D	1	0	3	D	1
{name:Anna,age:27,taskver:20200413.2-rtpen+endQ}	Anna	27	20200413.2-rtpen+endQ	debugis2Bb	91	786.000000080094	0.2	F	39	p28	1	R	1	50	debugis2Bb_27_Anna	182	R	2	1	3	D	0
{name:Anna,age:27,taskver:20200413.2-rtpen+endQ}	Anna	27	20200413.2-rtpen+endQ	debugis2Bb	92	964.000000152737	1	R	39	p28	0.2	F	0.2	0	debugis2Bb_27_Anna	184	F	2	0	3	D	0
{name:Anna,age:27,taskver:20200413.2-rtpen+endQ}	Anna	27	20200413.2-rtpen+endQ	debugis2Bb	93	912.000000011176	0.2	F	37	p28	0.8	D	0.2	50	debugis2Bb_27_Anna	186	F	1	0	3	D	0
{name:Anna,age:27,taskver:20200413.2-rtpen+endQ}	Anna	27	20200413.2-rtpen+endQ	debugis2Bb	94	784.999999916181	0.8	D	39	p28	0.2	F	0.2	0	debugis2Bb_27_Anna	188	F	1	0	3	D	0
{name:Anna,age:27,taskver:20200413.2-rtpen+endQ}	Anna	27	20200413.2-rtpen+endQ	debugis2Bb	95	685.000000055879	0.8	D	37	p28	0.2	F	0.8	50	debugis2Bb_27_Anna	190	D	1	0	3	D	1
{name:Anna,age:27,taskver:20200413.2-rtpen+endQ}	Anna	27	20200413.2-rtpen+endQ	debugis2Bb	96	650.99999983795	0.2	F	39	p28	0.8	D	0.8	50	debugis2Bb_27_Anna	192	D	1	0	3	D	1
{name:Anna,age:27,taskver:20200413.2-rtpen+endQ}	Anna	27	20200413.2-rtpen+endQ	debugis2Bb	97	689.999999944121	1	R	37	p28	0.2	F	1	50	debugis2Bb_27_Anna	194	R	2	1	3	D	0
{name:Anna,age:27,taskver:20200413.2-rtpen+endQ}	Anna	27	20200413.2-rtpen+endQ	debugis2Bb	98	600.000000093132	0.2	F	39	p28	0.8	D	0.8	50	debugis2Bb_27_Anna	196	D	1	0	3	D	1
{name:Anna,age:27,taskver:20200413.2-rtpen+endQ}	Anna	27	20200413.2-rtpen+endQ	debugis2Bb	99	611.000000033528	0.8	D	37	p28	0.2	F	0.8	50	debugis2Bb_27_Anna	198	D	1	0	3	D	1
{name:Anna,age:27,taskver:20200413.2-rtpen+endQ}	Anna	27	20200413.2-rtpen+endQ	debugis2Bb	100	598.999999929219	0.8	D	37	p28	0.2	F	0.8	50	debugis2Bb_27_Anna	200	D	1	0	3	D	1
{name:Anna,age:27,taskver:20200413.2-rtpen+endQ}	Anna	27	20200413.2-rtpen+endQ	debugis2Bb	101	746.000000042841	0.8	D	39	p28	1	R	1	50	debugis2Bb_27_Anna	202	R	2	1	3	D	0
{name:Anna,age:27,taskver:20200413.2-rtpen+endQ}	Anna	27	20200413.2-rtpen+endQ	debugis2Bb	102	618.000000016764	0.2	F	39	p28	0.8	D	0.8	0	debugis2Bb_27_Anna	204	D	1	0	3	D	1
{name:Anna,age:27,taskver:20200413.2-rtpen+endQ}	Anna	27	20200413.2-rtpen+endQ	debugis2Bb	103	517.999999923632	0.8	D	37	p28	0.2	F	0.8	50	debugis2Bb_27_Anna	206	D	1	0	3	D	1
{name:Anna,age:27,taskver:20200413.2-rtpen+endQ}	Anna	27	20200413.2-rtpen+endQ	debugis2Bb	104	663.99999987334	0.2	F	39	p28	0.8	D	0.8	50	debugis2Bb_27_Anna	208	D	1	0	3	D	1
{name:Anna,age:27,taskver:20200413.2-rtpen+endQ}	Anna	27	20200413.2-rtpen+endQ	debugis2Bb	105	631.000000052154	0.8	D	37	p28	0.2	F	0.8	50	debugis2Bb_27_Anna	210	D	1	0	3	D	1
{name:Anna,age:27,taskver:20200413.2-rtpen+endQ}	Anna	27	20200413.2-rtpen+endQ	debugis2Bb	106	614.999999990687	0.8	D	37	p28	0.2	F	0.8	50	debugis2Bb_27_Anna	212	D	1	0	3	D	1
{name:Anna,age:27,taskver:20200413.2-rtpen+endQ}	Anna	27	20200413.2-rtpen+endQ	debugis2Bb	107	628.999999957159	0.2	F	37	p28	1	R	0.2	0	debugis2Bb_27_Anna	214	F	2	0	3	D	0
{name:Anna,age:27,taskver:20200413.2-rtpen+endQ}	Anna	27	20200413.2-rtpen+endQ	debugis2Bb	108	611.000000033528	0.2	F	39	p28	0.8	D	0.8	50	debugis2Bb_27_Anna	216	D	1	0	3	D	1
{name:Anna,age:27,taskver:20200413.2-rtpen+endQ}	Anna	27	20200413.2-rtpen+endQ	debugis2Bb	109	574.000000022352	0.8	D	37	p28	0.2	F	0.8	0	debugis2Bb_27_Anna	218	D	1	0	3	D	1
{name:Anna,age:27,taskver:20200413.2-rtpen+endQ}	Anna	27	20200413.2-rtpen+endQ	debugis2Bb	110	552.000000141561	0.8	D	39	p28	0.2	F	0.2	0	debugis2Bb_27_Anna	220	F	1	0	3	D	0
{name:Anna,age:27,taskver:20200413.2-rtpen+endQ}	Anna	27	20200413.2-rtpen+endQ	debugis2Bb	111	530.999999959022	0.8	D	37	p28	0.2	F	0.8	50	debugis2Bb_27_Anna	222	D	1	0	3	D	1
{name:Anna,age:27,taskver:20200413.2-rtpen+endQ}	Anna	27	20200413.2-rtpen+endQ	debugis2Bb	112	750.999999931082	1	R	37	p28	0.8	D	1	50	debugis2Bb_27_Anna	224	R	2	1	3	D	0
{name:Anna,age:27,taskver:20200413.2-rtpen+endQ}	Anna	27	20200413.2-rtpen+endQ	debugis2Bb	113	923.999999882653	0.2	F	39	p28	0.8	D	0.8	50	debugis2Bb_27_Anna	226	D	1	0	3	D	1
{name:Anna,age:27,taskver:20200413.2-rtpen+endQ}	Anna	27	20200413.2-rtpen+endQ	debugis2Bb	114	713.999999919906	1	R	39	p28	0.8	D	0.8	50	debugis2Bb_27_Anna	228	D	2	0	3	D	1
{name:Anna,age:27,taskver:20200413.2-rtpen+endQ}	Anna	27	20200413.2-rtpen+endQ	debugis2Bb	115	680.99999986589	0.2	F	39	p28	0.8	D	0.8	50	debugis2Bb_27_Anna	230	D	1	0	3	D	1
{name:Anna,age:27,taskver:20200413.2-rtpen+endQ}	Anna	27	20200413.2-rtpen+endQ	debugis2Bb	116	588.999999919906	0.2	F	39	p28	0.8	D	0.8	50	debugis2Bb_27_Anna	232	D	1	0	3	D	1
{name:Anna,age:27,taskver:20200413.2-rtpen+endQ}	Anna	27	20200413.2-rtpen+endQ	debugis2Bb	117	697.999999858439	0.8	D	37	p28	0.2	F	0.8	0	debugis2Bb_27_Anna	234	D	1	0	3	D	1
{name:Anna,age:27,taskver:20200413.2-rtpen+endQ}	Anna	27	20200413.2-rtpen+endQ	debugis2Bb	118	584.000000031665	0.2	F	39	p28	0.8	D	0.8	0	debugis2Bb_27_Anna	236	D	1	0	3	D	1
{name:Anna,age:27,taskver:20200413.2-rtpen+endQ}	Anna	27	20200413.2-rtpen+endQ	debugis2Bb	119	553.000000072643	0.8	D	37	p28	0.2	F	0.8	50	debugis2Bb_27_Anna	238	D	1	0	3	D	1
{name:Anna,age:27,taskver:20200413.2-rtpen+endQ}	Anna	27	20200413.2-rtpen+endQ	debugis2Bb	120	672.999999951571	0.2	F	39	p28	0.8	D	0.8	50	debugis2Bb_27_Anna	240	D	1	0	3	D	1
{name:Anna,age:27,taskver:20200413.2-rtpen+endQ}	Anna	27	20200413.2-rtpen+endQ	debugis2Bb	121	845.999999903142	0.2	D	37	p82	0.8	F	0.2	0	debugis2Bb_27_Anna	242	D	1	0	4	D	1
{name:Anna,age:27,taskver:20200413.2-rtpen+endQ}	Anna	27	20200413.2-rtpen+endQ	debugis2Bb	122	722.999999998137	0.2	D	37	p82	0.8	F	0.2	0	debugis2Bb_27_Anna	244	D	1	0	4	D	1
{name:Anna,age:27,taskver:20200413.2-rtpen+endQ}	Anna	27	20200413.2-rtpen+endQ	debugis2Bb	123	510.999999940395	0.8	F	39	p82	0.2	D	0.2	0	debugis2Bb_27_Anna	246	D	1	0	4	D	1
{name:Anna,age:27,taskver:20200413.2-rtpen+endQ}	Anna	27	20200413.2-rtpen+endQ	debugis2Bb	124	1092.99999987707	0.8	F	37	p82	0.2	D	0.8	50	debugis2Bb_27_Anna	248	F	1	0	4	D	0
{name:Anna,age:27,taskver:20200413.2-rtpen+endQ}	Anna	27	20200413.2-rtpen+endQ	debugis2Bb	125	1146.99999988079	0.2	D	39	p82	0.8	F	0.8	50	debugis2Bb_27_Anna	250	F	1	0	4	D	0
{name:Anna,age:27,taskver:20200413.2-rtpen+endQ}	Anna	27	20200413.2-rtpen+endQ	debugis2Bb	126	810.000000055879	0.8	F	37	p82	0.2	D	0.8	0	debugis2Bb_27_Anna	252	F	1	0	4	D	0
{name:Anna,age:27,taskver:20200413.2-rtpen+endQ}	Anna	27	20200413.2-rtpen+endQ	debugis2Bb	127	833.000000100583	0.8	F	39	p82	0.2	D	0.2	0	debugis2Bb_27_Anna	254	D	1	0	4	D	1
{name:Anna,age:27,taskver:20200413.2-rtpen+endQ}	Anna	27	20200413.2-rtpen+endQ	debugis2Bb	128	583.999999798834	0.2	D	37	p82	1	R	0.2	0	debugis2Bb_27_Anna	256	D	2	0	4	D	1
{name:Anna,age:27,taskver:20200413.2-rtpen+endQ}	Anna	27	20200413.2-rtpen+endQ	debugis2Bb	129	732.000000076368	0.2	D	37	p82	0.8	F	0.2	0	debugis2Bb_27_Anna	258	D	1	0	4	D	1
{name:Anna,age:27,taskver:20200413.2-rtpen+endQ}	Anna	27	20200413.2-rtpen+endQ	debugis2Bb	130	587.999999988824	0.2	D	39	p82	0.8	F	0.8	50	debugis2Bb_27_Anna	260	F	1	0	4	D	0
{name:Anna,age:27,taskver:20200413.2-rtpen+endQ}	Anna	27	20200413.2-rtpen+endQ	debugis2Bb	131	722.999999998137	0.2	D	39	p82	0.8	F	0.8	50	debugis2Bb_27_Anna	262	F	1	0	4	D	0
{name:Anna,age:27,taskver:20200413.2-rtpen+endQ}	Anna	27	20200413.2-rtpen+endQ	debugis2Bb	132	1935.99999998696	0.8	F	39	p82	0.2	D	0.2	0	debugis2Bb_27_Anna	264	D	1	0	4	D	1
{name:Anna,age:27,taskver:20200413.2-rtpen+endQ}	Anna	27	20200413.2-rtpen+endQ	debugis2Bb	133	568.99999990128	0.2	D	37	p82	0.8	F	0.2	0	debugis2Bb_27_Anna	266	D	1	0	4	D	1
{name:Anna,age:27,taskver:20200413.2-rtpen+endQ}	Anna	27	20200413.2-rtpen+endQ	debugis2Bb	134	582.999999867752	0.8	F	39	p82	0.2	D	0.2	50	debugis2Bb_27_Anna	268	D	1	0	4	D	1
{name:Anna,age:27,taskver:20200413.2-rtpen+endQ}	Anna	27	20200413.2-rtpen+endQ	debugis2Bb	135	733.999999938533	0.8	F	39	p82	0.2	D	0.2	50	debugis2Bb_27_Anna	270	D	1	0	4	D	1
{name:Anna,age:27,taskver:20200413.2-rtpen+endQ}	Anna	27	20200413.2-rtpen+endQ	debugis2Bb	136	813.000000081956	0.8	F	39	p82	1	R	1	50	debugis2Bb_27_Anna	272	R	2	1	4	D	0
{name:Anna,age:27,taskver:20200413.2-rtpen+endQ}	Anna	27	20200413.2-rtpen+endQ	debugis2Bb	137	798.999999882653	0.8	F	39	p82	0.2	D	0.2	0	debugis2Bb_27_Anna	274	D	1	0	4	D	1
{name:Anna,age:27,taskver:20200413.2-rtpen+endQ}	Anna	27	20200413.2-rtpen+endQ	debugis2Bb	138	673.999999882653	0.8	F	37	p82	1	R	0.8	50	debugis2Bb_27_Anna	276	F	2	0	4	D	0
{name:Anna,age:27,taskver:20200413.2-rtpen+endQ}	Anna	27	20200413.2-rtpen+endQ	debugis2Bb	139	806.999999796972	0.8	F	39	p82	0.2	D	0.2	0	debugis2Bb_27_Anna	278	D	1	0	4	D	1
{name:Anna,age:27,taskver:20200413.2-rtpen+endQ}	Anna	27	20200413.2-rtpen+endQ	debugis2Bb	140	1064.99999994412	0.2	D	39	p82	0.8	F	0.8	50	debugis2Bb_27_Anna	280	F	1	0	4	D	0
{name:Anna,age:27,taskver:20200413.2-rtpen+endQ}	Anna	27	20200413.2-rtpen+endQ	debugis2Bb	141	872.999999905005	0.2	D	39	p82	0.8	F	0.8	50	debugis2Bb_27_Anna	282	F	1	0	4	D	0
{name:Anna,age:27,taskver:20200413.2-rtpen+endQ}	Anna	27	20200413.2-rtpen+endQ	debugis2Bb	142	778.999999864027	1	R	39	p82	0.8	F	0.8	50	debugis2Bb_27_Anna	284	F	2	0	4	D	0
{name:Anna,age:27,taskver:20200413.2-rtpen+endQ}	Anna	27	20200413.2-rtpen+endQ	debugis2Bb	143	679.999999934807	0.2	D	39	p82	0.8	F	0.8	0	debugis2Bb_27_Anna	286	F	1	0	4	D	0
{name:Anna,age:27,taskver:20200413.2-rtpen+endQ}	Anna	27	20200413.2-rtpen+endQ	debugis2Bb	144	648.999999975786	0.2	D	39	p82	0.8	F	0.8	50	debugis2Bb_27_Anna	288	F	1	0	4	D	0
{name:Anna,age:27,taskver:20200413.2-rtpen+endQ}	Anna	27	20200413.2-rtpen+endQ	debugis2Bb	145	1253.99999995716	0.8	F	39	p82	0.2	D	0.2	0	debugis2Bb_27_Anna	290	D	1	0	4	D	1
{name:Anna,age:27,taskver:20200413.2-rtpen+endQ}	Anna	27	20200413.2-rtpen+endQ	debugis2Bb	146	770.000000018626	1	R	39	p82	0.2	D	0.2	0	debugis2Bb_27_Anna	292	D	2	0	4	D	1
{name:Anna,age:27,taskver:20200413.2-rtpen+endQ}	Anna	27	20200413.2-rtpen+endQ	debugis2Bb	147	800.999999977648	0.8	F	37	p82	0.2	D	0.8	50	debugis2Bb_27_Anna	294	F	1	0	4	D	0
{name:Anna,age:27,taskver:20200413.2-rtpen+endQ}	Anna	27	20200413.2-rtpen+endQ	debugis2Bb	148	704.000000143424	0.2	D	39	p82	0.8	F	0.8	50	debugis2Bb_27_Anna	296	F	1	0	4	D	0
{name:Anna,age:27,taskver:20200413.2-rtpen+endQ}	Anna	27	20200413.2-rtpen+endQ	debugis2Bb	149	821.999999927357	0.2	D	39	p82	0.8	F	0.8	50	debugis2Bb_27_Anna	298	F	1	0	4	D	0
{name:Anna,age:27,taskver:20200413.2-rtpen+endQ}	Anna	27	20200413.2-rtpen+endQ	debugis2Bb	150	640.000000130385	0.2	D	39	p82	0.8	F	0.8	50	debugis2Bb_27_Anna	300	F	1	0	4	D	0
{name:Anna,age:27,taskver:20200413.2-rtpen+endQ}	Anna	27	20200413.2-rtpen+endQ	debugis2Bb	151	543.00000006333	0.2	D	39	p82	0.8	F	0.8	50	debugis2Bb_27_Anna	302	F	1	0	4	D	0
{name:Anna,age:27,taskver:20200413.2-rtpen+endQ}	Anna	27	20200413.2-rtpen+endQ	debugis2Bb	152	778.000000165775	1	R	37	p82	0.2	D	1	50	debugis2Bb_27_Anna	304	R	2	1	4	D	0
{name:Anna,age:27,taskver:20200413.2-rtpen+endQ}	Anna	27	20200413.2-rtpen+endQ	debugis2Bb	153	802.000000141561	0.8	F	39	p82	0.2	D	0.2	0	debugis2Bb_27_Anna	306	D	1	0	4	D	1
{name:Anna,age:27,taskver:20200413.2-rtpen+endQ}	Anna	27	20200413.2-rtpen+endQ	debugis2Bb	154	668.999999994412	0.8	F	37	p82	0.2	D	0.8	50	debugis2Bb_27_Anna	308	F	1	0	4	D	0
{name:Anna,age:27,taskver:20200413.2-rtpen+endQ}	Anna	27	20200413.2-rtpen+endQ	debugis2Bb	155	692.999999970198	0.2	D	39	p82	0.8	F	0.8	50	debugis2Bb_27_Anna	310	F	1	0	4	D	0
{name:Anna,age:27,taskver:20200413.2-rtpen+endQ}	Anna	27	20200413.2-rtpen+endQ	debugis2Bb	156	663.000000175089	0.8	F	37	p82	0.2	D	0.8	0	debugis2Bb_27_Anna	312	F	1	0	4	D	0
{name:Anna,age:27,taskver:20200413.2-rtpen+endQ}	Anna	27	20200413.2-rtpen+endQ	debugis2Bb	157	1188.00000008196	0.2	D	39	p82	1	R	1	50	debugis2Bb_27_Anna	314	R	2	1	4	D	0
{name:Anna,age:27,taskver:20200413.2-rtpen+endQ}	Anna	27	20200413.2-rtpen+endQ	debugis2Bb	158	969.99999997206	0.8	F	39	p82	0.2	D	0.2	50	debugis2Bb_27_Anna	316	D	1	0	4	D	1
{name:Anna,age:27,taskver:20200413.2-rtpen+endQ}	Anna	27	20200413.2-rtpen+endQ	debugis2Bb	159	1307.0000000298	1	R	37	p82	0.8	F	1	50	debugis2Bb_27_Anna	318	R	2	1	4	D	0
{name:Anna,age:27,taskver:20200413.2-rtpen+endQ}	Anna	27	20200413.2-rtpen+endQ	debugis2Bb	160	854.000000050291	0.8	F	39	p82	0.2	D	0.2	0	debugis2Bb_27_Anna	320	D	1	0	4	D	1
{name:Anna,age:27,taskver:20200413.2-rtpen+endQ}	Anna	27	20200413.2-rtpen+endQ	debugis2Bb	161	579.999999841675	1	D	37	p11	1	R	1	50	debugis2Bb_27_Anna	322	D	2	0	5	D	1
{name:Anna,age:27,taskver:20200413.2-rtpen+endQ}	Anna	27	20200413.2-rtpen+endQ	debugis2Bb	162	749.000000068918	1	D	39	p11	1	R	1	50	debugis2Bb_27_Anna	324	R	2	1	5	D	0
{name:Anna,age:27,taskver:20200413.2-rtpen+endQ}	Anna	27	20200413.2-rtpen+endQ	debugis2Bb	163	1527.99999993294	1	F	39	p11	1	D	1	50	debugis2Bb_27_Anna	326	D	1	0	5	D	1
{name:Anna,age:27,taskver:20200413.2-rtpen+endQ}	Anna	27	20200413.2-rtpen+endQ	debugis2Bb	164	763.00000003539	1	F	39	p11	1	D	1	50	debugis2Bb_27_Anna	328	D	1	0	5	D	1
{name:Anna,age:27,taskver:20200413.2-rtpen+endQ}	Anna	27	20200413.2-rtpen+endQ	debugis2Bb	165	760.000000009313	1	D	37	p11	1	F	1	50	debugis2Bb_27_Anna	330	D	1	0	5	D	1
{name:Anna,age:27,taskver:20200413.2-rtpen+endQ}	Anna	27	20200413.2-rtpen+endQ	debugis2Bb	166	590.999999782071	1	F	39	p11	1	D	1	50	debugis2Bb_27_Anna	332	D	1	0	5	D	1
{name:Anna,age:27,taskver:20200413.2-rtpen+endQ}	Anna	27	20200413.2-rtpen+endQ	debugis2Bb	167	638.999999966472	1	D	37	p11	1	F	1	50	debugis2Bb_27_Anna	334	D	1	0	5	D	1
{name:Anna,age:27,taskver:20200413.2-rtpen+endQ}	Anna	27	20200413.2-rtpen+endQ	debugis2Bb	168	547.999999951571	1	F	39	p11	1	D	1	50	debugis2Bb_27_Anna	336	D	1	0	5	D	1
{name:Anna,age:27,taskver:20200413.2-rtpen+endQ}	Anna	27	20200413.2-rtpen+endQ	debugis2Bb	169	610.000000102445	1	F	39	p11	1	D	1	50	debugis2Bb_27_Anna	338	D	1	0	5	D	1
{name:Anna,age:27,taskver:20200413.2-rtpen+endQ}	Anna	27	20200413.2-rtpen+endQ	debugis2Bb	170	614.000000059605	1	F	39	p11	1	D	1	50	debugis2Bb_27_Anna	340	D	1	0	5	D	1
{name:Anna,age:27,taskver:20200413.2-rtpen+endQ}	Anna	27	20200413.2-rtpen+endQ	debugis2Bb	171	798.999999882653	1	D	37	p11	1	F	1	50	debugis2Bb_27_Anna	342	D	1	0	5	D	1
{name:Anna,age:27,taskver:20200413.2-rtpen+endQ}	Anna	27	20200413.2-rtpen+endQ	debugis2Bb	172	628.999999957159	1	F	39	p11	1	D	1	50	debugis2Bb_27_Anna	344	D	1	0	5	D	1
{name:Anna,age:27,taskver:20200413.2-rtpen+endQ}	Anna	27	20200413.2-rtpen+endQ	debugis2Bb	173	550.999999977648	1	F	39	p11	1	D	1	50	debugis2Bb_27_Anna	346	D	1	0	5	D	1
{name:Anna,age:27,taskver:20200413.2-rtpen+endQ}	Anna	27	20200413.2-rtpen+endQ	debugis2Bb	174	697.999999858439	1	D	37	p11	1	F	1	50	debugis2Bb_27_Anna	348	D	1	0	5	D	1
{name:Anna,age:27,taskver:20200413.2-rtpen+endQ}	Anna	27	20200413.2-rtpen+endQ	debugis2Bb	175	702.999999979511	1	D	37	p11	1	F	1	50	debugis2Bb_27_Anna	350	D	1	0	5	D	1
{name:Anna,age:27,taskver:20200413.2-rtpen+endQ}	Anna	27	20200413.2-rtpen+endQ	debugis2Bb	176	636.000000173226	1	D	37	p11	1	F	1	50	debugis2Bb_27_Anna	352	D	1	0	5	D	1
{name:Anna,age:27,taskver:20200413.2-rtpen+endQ}	Anna	27	20200413.2-rtpen+endQ	debugis2Bb	177	682.000000029802	1	F	39	p11	1	D	1	50	debugis2Bb_27_Anna	354	D	1	0	5	D	1
{name:Anna,age:27,taskver:20200413.2-rtpen+endQ}	Anna	27	20200413.2-rtpen+endQ	debugis2Bb	178	590.000000083819	1	D	37	p11	1	F	1	50	debugis2Bb_27_Anna	356	D	1	0	5	D	1
{name:Anna,age:27,taskver:20200413.2-rtpen+endQ}	Anna	27	20200413.2-rtpen+endQ	debugis2Bb	179	800.999999977648	1	R	37	p11	1	F	1	50	debugis2Bb_27_Anna	358	R	2	1	5	D	0
{name:Anna,age:27,taskver:20200413.2-rtpen+endQ}	Anna	27	20200413.2-rtpen+endQ	debugis2Bb	180	655.999999959022	1	F	39	p11	1	D	1	50	debugis2Bb_27_Anna	360	D	1	0	5	D	1
{name:Anna,age:27,taskver:20200413.2-rtpen+endQ}	Anna	27	20200413.2-rtpen+endQ	debugis2Bb	181	526.000000070781	1	D	37	p11	1	F	1	50	debugis2Bb_27_Anna	362	D	1	0	5	D	1
{name:Anna,age:27,taskver:20200413.2-rtpen+endQ}	Anna	27	20200413.2-rtpen+endQ	debugis2Bb	182	641.999999992549	1	D	37	p11	1	F	1	50	debugis2Bb_27_Anna	364	D	1	0	5	D	1
{name:Anna,age:27,taskver:20200413.2-rtpen+endQ}	Anna	27	20200413.2-rtpen+endQ	debugis2Bb	183	598.999999929219	1	D	37	p11	1	F	1	50	debugis2Bb_27_Anna	366	D	1	0	5	D	1
{name:Anna,age:27,taskver:20200413.2-rtpen+endQ}	Anna	27	20200413.2-rtpen+endQ	debugis2Bb	184	554.000000003725	1	F	37	p11	1	D	1	50	debugis2Bb_27_Anna	368	F	1	0	5	D	0
{name:Anna,age:27,taskver:20200413.2-rtpen+endQ}	Anna	27	20200413.2-rtpen+endQ	debugis2Bb	185	621.999999973923	1	F	39	p11	1	D	1	50	debugis2Bb_27_Anna	370	D	1	0	5	D	1
{name:Anna,age:27,taskver:20200413.2-rtpen+endQ}	Anna	27	20200413.2-rtpen+endQ	debugis2Bb	186	1037.00000001118	1	D	37	p11	1	F	1	50	debugis2Bb_27_Anna	372	D	1	0	5	D	1
{name:Anna,age:27,taskver:20200413.2-rtpen+endQ}	Anna	27	20200413.2-rtpen+endQ	debugis2Bb	187	783.999999985099	1	F	37	p11	1	D	1	50	debugis2Bb_27_Anna	374	F	1	0	5	D	0
{name:Anna,age:27,taskver:20200413.2-rtpen+endQ}	Anna	27	20200413.2-rtpen+endQ	debugis2Bb	188	701.000000117347	1	F	39	p11	1	R	1	50	debugis2Bb_27_Anna	376	R	2	1	5	D	0
{name:Anna,age:27,taskver:20200413.2-rtpen+endQ}	Anna	27	20200413.2-rtpen+endQ	debugis2Bb	189	876.000000163913	1	D	39	p11	1	F	1	50	debugis2Bb_27_Anna	378	F	1	0	5	D	0
{name:Anna,age:27,taskver:20200413.2-rtpen+endQ}	Anna	27	20200413.2-rtpen+endQ	debugis2Bb	190	692.999999970198	1	R	37	p11	1	F	1	50	debugis2Bb_27_Anna	380	R	2	1	5	D	0
{name:Anna,age:27,taskver:20200413.2-rtpen+endQ}	Anna	27	20200413.2-rtpen+endQ	debugis2Bb	191	522.999999811873	1	R	39	p11	1	F	1	50	debugis2Bb_27_Anna	382	F	2	0	5	D	0
{name:Anna,age:27,taskver:20200413.2-rtpen+endQ}	Anna	27	20200413.2-rtpen+endQ	debugis2Bb	192	689.000000013039	1	F	39	p11	1	D	1	50	debugis2Bb_27_Anna	384	D	1	0	5	D	1
{name:Anna,age:27,taskver:20200413.2-rtpen+endQ}	Anna	27	20200413.2-rtpen+endQ	debugis2Bb	193	605.999999912456	1	F	39	p11	1	D	1	50	debugis2Bb_27_Anna	386	D	1	0	5	D	1
{name:Anna,age:27,taskver:20200413.2-rtpen+endQ}	Anna	27	20200413.2-rtpen+endQ	debugis2Bb	194	763.999999966472	1	F	39	p11	1	R	1	50	debugis2Bb_27_Anna	388	R	2	1	5	D	0
{name:Anna,age:27,taskver:20200413.2-rtpen+endQ}	Anna	27	20200413.2-rtpen+endQ	debugis2Bb	195	736.99999996461	1	D	39	p11	1	F	1	50	debugis2Bb_27_Anna	390	F	1	0	5	D	0
{name:Anna,age:27,taskver:20200413.2-rtpen+endQ}	Anna	27	20200413.2-rtpen+endQ	debugis2Bb	196	750.999999931082	1	F	37	p11	1	D	1	50	debugis2Bb_27_Anna	392	F	1	0	5	D	0
{name:Anna,age:27,taskver:20200413.2-rtpen+endQ}	Anna	27	20200413.2-rtpen+endQ	debugis2Bb	197	570.999999996275	1	D	39	p11	1	F	1	50	debugis2Bb_27_Anna	394	F	1	0	5	D	0
{name:Anna,age:27,taskver:20200413.2-rtpen+endQ}	Anna	27	20200413.2-rtpen+endQ	debugis2Bb	198	597.999999998137	1	F	37	p11	1	D	1	50	debugis2Bb_27_Anna	396	F	1	0	5	D	0
{name:Anna,age:27,taskver:20200413.2-rtpen+endQ}	Anna	27	20200413.2-rtpen+endQ	debugis2Bb	199	553.999999770895	1	D	39	p11	1	F	1	50	debugis2Bb_27_Anna	398	F	1	0	5	D	0
{name:Anna,age:27,taskver:20200413.2-rtpen+endQ}	Anna	27	20200413.2-rtpen+endQ	debugis2Bb	200	833.999999798834	1	R	37	p11	1	D	1	50	debugis2Bb_27_Anna	400	R	2	1	5	D	0
{name:Anna,age:27,taskver:20200413.2-rtpen+endQ}	Anna	27	20200413.2-rtpen+endQ	debugis2Bb	201	691.999999806285	1	F	39	p11	1	R	1	50	debugis2Bb_27_Anna	402	R	2	1	5	D	0
{name:Anna,age:27,taskver:20200413.2-rtpen+endQ}	Anna	27	20200413.2-rtpen+endQ	debugis2Bb	202	685.999999986961	1	F	37	p11	1	D	1	50	debugis2Bb_27_Anna	404	F	1	0	5	D	0
{name:Anna,age:27,taskver:20200413.2-rtpen+endQ}	Anna	27	20200413.2-rtpen+endQ	debugis2Bb	203	489.000000059605	1	D	39	p11	1	F	1	50	debugis2Bb_27_Anna	406	F	1	0	5	D	0
{name:Anna,age:27,taskver:20200413.2-rtpen+endQ}	Anna	27	20200413.2-rtpen+endQ	debugis2Bb	204	505.000000121072	1	F	37	p11	1	D	1	50	debugis2Bb_27_Anna	408	F	1	0	5	D	0
{name:Anna,age:27,taskver:20200413.2-rtpen+endQ}	Anna	27	20200413.2-rtpen+endQ	debugis2Bb	205	803.000000072643	1	R	37	p11	1	D	1	50	debugis2Bb_27_Anna	410	R	2	1	5	D	0
{name:Anna,age:27,taskver:20200413.2-rtpen+endQ}	Anna	27	20200413.2-rtpen+endQ	debugis2Bb	206	780.999999959022	1	F	37	p11	1	D	1	50	debugis2Bb_27_Anna	412	F	1	0	5	D	0
{name:Anna,age:27,taskver:20200413.2-rtpen+endQ}	Anna	27	20200413.2-rtpen+endQ	debugis2Bb	207	658.000000054017	1	F	37	p11	1	R	1	50	debugis2Bb_27_Anna	414	F	2	0	5	D	0
{name:Anna,age:27,taskver:20200413.2-rtpen+endQ}	Anna	27	20200413.2-rtpen+endQ	debugis2Bb	208	651.000000070781	1	D	39	p11	1	F	1	50	debugis2Bb_27_Anna	416	F	1	0	5	D	0
{name:Anna,age:27,taskver:20200413.2-rtpen+endQ}	Anna	27	20200413.2-rtpen+endQ	debugis2Bb	209	517.999999923632	1	F	37	p11	1	D	1	50	debugis2Bb_27_Anna	418	F	1	0	5	D	0
{name:Anna,age:27,taskver:20200413.2-rtpen+endQ}	Anna	27	20200413.2-rtpen+endQ	debugis2Bb	210	704.000000143424	1	F	37	p11	1	D	1	50	debugis2Bb_27_Anna	420	F	1	0	5	D	0
{name:Anna,age:27,taskver:20200413.2-rtpen+endQ}	Anna	27	20200413.2-rtpen+endQ	debugis2Bb	211	542.999999830499	1	F	37	p11	1	D	1	50	debugis2Bb_27_Anna	422	F	1	0	5	D	0
{name:Anna,age:27,taskver:20200413.2-rtpen+endQ}	Anna	27	20200413.2-rtpen+endQ	debugis2Bb	212	560.000000055879	1	F	37	p11	1	D	1	50	debugis2Bb_27_Anna	424	F	1	0	5	D	0
{name:Anna,age:27,taskver:20200413.2-rtpen+endQ}	Anna	27	20200413.2-rtpen+endQ	debugis2Bb	213	597.999999998137	1	D	39	p11	1	F	1	50	debugis2Bb_27_Anna	426	F	1	0	5	D	0
{name:Anna,age:27,taskver:20200413.2-rtpen+endQ}	Anna	27	20200413.2-rtpen+endQ	debugis2Bb	214	637.000000104308	1	D	39	p11	1	F	1	50	debugis2Bb_27_Anna	428	F	1	0	5	D	0
{name:Anna,age:27,taskver:20200413.2-rtpen+endQ}	Anna	27	20200413.2-rtpen+endQ	debugis2Bb	215	435.999999986961	1	D	39	p11	1	F	1	50	debugis2Bb_27_Anna	430	F	1	0	5	D	0
{name:Anna,age:27,taskver:20200413.2-rtpen+endQ}	Anna	27	20200413.2-rtpen+endQ	debugis2Bb	216	503.000000026077	1	D	39	p11	1	F	1	50	debugis2Bb_27_Anna	432	F	1	0	5	D	0
{name:Anna,age:27,taskver:20200413.2-rtpen+endQ}	Anna	27	20200413.2-rtpen+endQ	debugis2Bb	217	419.999999925494	1	F	39	p11	1	D	1	50	debugis2Bb_27_Anna	434	D	1	0	5	D	1
{name:Anna,age:27,taskver:20200413.2-rtpen+endQ}	Anna	27	20200413.2-rtpen+endQ	debugis2Bb	218	749.000000068918	1	R	37	p11	1	D	1	50	debugis2Bb_27_Anna	436	R	2	1	5	D	0
{name:Anna,age:27,taskver:20200413.2-rtpen+endQ}	Anna	27	20200413.2-rtpen+endQ	debugis2Bb	219	643.000000156462	1	F	39	p11	1	D	1	50	debugis2Bb_27_Anna	438	D	1	0	5	D	1
{name:Anna,age:27,taskver:20200413.2-rtpen+endQ}	Anna	27	20200413.2-rtpen+endQ	debugis2Bb	220	614.999999990687	1	F	39	p11	1	D	1	50	debugis2Bb_27_Anna	440	D	1	0	5	D	1
{name:Anna,age:27,taskver:20200413.2-rtpen+endQ}	Anna	27	20200413.2-rtpen+endQ	debugis2Bb	221	473.999999929219	1	F	39	p11	1	D	1	50	debugis2Bb_27_Anna	442	D	1	0	5	D	1
{name:Anna,age:27,taskver:20200413.2-rtpen+endQ}	Anna	27	20200413.2-rtpen+endQ	debugis2Bb	222	964.999999850988	1	D	39	p11	1	F	1	50	debugis2Bb_27_Anna	444	F	1	0	5	D	0
{name:Anna,age:27,taskver:20200413.2-rtpen+endQ}	Anna	27	20200413.2-rtpen+endQ	debugis2Bb	223	824.000000022352	1	D	39	p11	1	F	1	50	debugis2Bb_27_Anna	446	F	1	0	5	D	0
{name:Anna,age:27,taskver:20200413.2-rtpen+endQ}	Anna	27	20200413.2-rtpen+endQ	debugis2Bb	224	571.999999927357	1	D	39	p11	1	F	1	50	debugis2Bb_27_Anna	448	F	1	0	5	D	0
{name:Anna,age:27,taskver:20200413.2-rtpen+endQ}	Anna	27	20200413.2-rtpen+endQ	debugis2Bb	225	638.999999966472	1	R	37	p11	1	F	1	50	debugis2Bb_27_Anna	450	R	2	1	5	D	0
{name:Anna,age:27,taskver:20200413.2-rtpen+endQ}	Anna	27	20200413.2-rtpen+endQ	debugis2Bb	226	516.000000061467	1	D	39	p11	1	F	1	50	debugis2Bb_27_Anna	452	F	1	0	5	D	0
{name:Anna,age:27,taskver:20200413.2-rtpen+endQ}	Anna	27	20200413.2-rtpen+endQ	debugis2Bb	227	597.000000067055	1	D	37	p11	1	R	1	50	debugis2Bb_27_Anna	454	D	2	0	5	D	1
{name:Anna,age:27,taskver:20200413.2-rtpen+endQ}	Anna	27	20200413.2-rtpen+endQ	debugis2Bb	228	705.000000074506	1	D	39	p11	1	F	1	50	debugis2Bb_27_Anna	456	F	1	0	5	D	0
{name:Anna,age:27,taskver:20200413.2-rtpen+endQ}	Anna	27	20200413.2-rtpen+endQ	debugis2Bb	229	479.999999981374	1	D	37	p11	1	F	1	50	debugis2Bb_27_Anna	458	D	1	0	5	D	1
{name:Anna,age:27,taskver:20200413.2-rtpen+endQ}	Anna	27	20200413.2-rtpen+endQ	debugis2Bb	230	727.999999886379	1	D	39	p11	1	R	1	50	debugis2Bb_27_Anna	460	R	2	1	5	D	0
{name:Anna,age:27,taskver:20200413.2-rtpen+endQ}	Anna	27	20200413.2-rtpen+endQ	debugis2Bb	231	558.999999891967	1	D	39	p11	1	F	1	50	debugis2Bb_27_Anna	462	F	1	0	5	D	0
{name:Anna,age:27,taskver:20200413.2-rtpen+endQ}	Anna	27	20200413.2-rtpen+endQ	debugis2Bb	232	820.000000065193	1	D	39	p11	1	F	1	50	debugis2Bb_27_Anna	464	F	1	0	5	D	0
{name:Anna,age:27,taskver:20200413.2-rtpen+endQ}	Anna	27	20200413.2-rtpen+endQ	debugis2Bb	233	714.999999850988	1	F	37	p11	1	D	1	50	debugis2Bb_27_Anna	466	F	1	0	5	D	0
{name:Anna,age:27,taskver:20200413.2-rtpen+endQ}	Anna	27	20200413.2-rtpen+endQ	debugis2Bb	234	665.000000037253	1	D	39	p11	1	F	1	50	debugis2Bb_27_Anna	468	F	1	0	5	D	0
{name:Anna,age:27,taskver:20200413.2-rtpen+endQ}	Anna	27	20200413.2-rtpen+endQ	debugis2Bb	235	644.000000087544	1	D	39	p11	1	F	1	50	debugis2Bb_27_Anna	470	F	1	0	5	D	0
{name:Anna,age:27,taskver:20200413.2-rtpen+endQ}	Anna	27	20200413.2-rtpen+endQ	debugis2Bb	236	481.999999843538	1	F	39	p11	1	D	1	50	debugis2Bb_27_Anna	472	D	1	0	5	D	1
{name:Anna,age:27,taskver:20200413.2-rtpen+endQ}	Anna	27	20200413.2-rtpen+endQ	debugis2Bb	237	1090.00000008382	1	R	39	p11	1	D	1	50	debugis2Bb_27_Anna	474	D	2	0	5	D	1
{name:Anna,age:27,taskver:20200413.2-rtpen+endQ}	Anna	27	20200413.2-rtpen+endQ	debugis2Bb	238	630.000000121072	1	F	39	p11	1	D	1	50	debugis2Bb_27_Anna	476	D	1	0	5	D	1
{name:Anna,age:27,taskver:20200413.2-rtpen+endQ}	Anna	27	20200413.2-rtpen+endQ	debugis2Bb	239	696.999999927357	1	F	39	p11	1	D	1	50	debugis2Bb_27_Anna	478	D	1	0	5	D	1
{name:Anna,age:27,taskver:20200413.2-rtpen+endQ}	Anna	27	20200413.2-rtpen+endQ	debugis2Bb	240	550.000000046566	1	D	39	p11	1	F	1	50	debugis2Bb_27_Anna	480	F	1	0	5	D	0
{name:Camden,age:16,taskver:20200413.2-rtpen+endQ}	Camden	16	20200413.2-rtpen+endQ	debugtBupz	1	1935	0.2	F	39	p28	0.8	D	0.8	0	debugtBupz_16_Camden	2	D	1	0	1	D	1
{name:Camden,age:16,taskver:20200413.2-rtpen+endQ}	Camden	16	20200413.2-rtpen+endQ	debugtBupz	2	1259	0.8	D	39	p28	0.2	F	0.2	0	debugtBupz_16_Camden	4	F	1	0	1	D	0
{name:Camden,age:16,taskver:20200413.2-rtpen+endQ}	Camden	16	20200413.2-rtpen+endQ	debugtBupz	3	1627	0.8	D	37	p28	0.2	F	0.8	50	debugtBupz_16_Camden	6	D	1	0	1	D	1
{name:Camden,age:16,taskver:20200413.2-rtpen+endQ}	Camden	16	20200413.2-rtpen+endQ	debugtBupz	4	1116	0.8	D	37	p28	0.2	F	0.8	50	debugtBupz_16_Camden	8	D	1	0	1	D	1
{name:Camden,age:16,taskver:20200413.2-rtpen+endQ}	Camden	16	20200413.2-rtpen+endQ	debugtBupz	5	940	0.8	D	37	p28	0.2	F	0.8	50	debugtBupz_16_Camden	10	D	1	0	1	D	1
{name:Camden,age:16,taskver:20200413.2-rtpen+endQ}	Camden	16	20200413.2-rtpen+endQ	debugtBupz	6	988	0.8	D	37	p28	0.2	F	0.8	50	debugtBupz_16_Camden	12	D	1	0	1	D	1
{name:Camden,age:16,taskver:20200413.2-rtpen+endQ}	Camden	16	20200413.2-rtpen+endQ	debugtBupz	7	989	0.8	D	37	p28	0.2	F	0.8	50	debugtBupz_16_Camden	14	D	1	0	1	D	1
{name:Camden,age:16,taskver:20200413.2-rtpen+endQ}	Camden	16	20200413.2-rtpen+endQ	debugtBupz	8	885	0.2	F	39	p28	0.8	D	0.8	0	debugtBupz_16_Camden	16	D	1	0	1	D	1
{name:Camden,age:16,taskver:20200413.2-rtpen+endQ}	Camden	16	20200413.2-rtpen+endQ	debugtBupz	9	1127	0.8	D	37	p28	1	R	0.8	50	debugtBupz_16_Camden	18	D	2	0	1	D	1
{name:Camden,age:16,taskver:20200413.2-rtpen+endQ}	Camden	16	20200413.2-rtpen+endQ	debugtBupz	10	1285	0.2	F	37	p28	1	R	0.2	0	debugtBupz_16_Camden	20	F	2	0	1	D	0
{name:Camden,age:16,taskver:20200413.2-rtpen+endQ}	Camden	16	20200413.2-rtpen+endQ	debugtBupz	11	1084	0.8	D	37	p28	0.2	F	0.8	0	debugtBupz_16_Camden	22	D	1	0	1	D	1
{name:Camden,age:16,taskver:20200413.2-rtpen+endQ}	Camden	16	20200413.2-rtpen+endQ	debugtBupz	12	1189	1	R	37	p28	0.2	F	1	50	debugtBupz_16_Camden	24	R	2	1	1	D	0
{name:Camden,age:16,taskver:20200413.2-rtpen+endQ}	Camden	16	20200413.2-rtpen+endQ	debugtBupz	13	1429	0.2	F	39	p28	0.8	D	0.8	50	debugtBupz_16_Camden	26	D	1	0	1	D	1
{name:Camden,age:16,taskver:20200413.2-rtpen+endQ}	Camden	16	20200413.2-rtpen+endQ	debugtBupz	14	1079	1	R	37	p28	0.2	F	1	50	debugtBupz_16_Camden	28	R	2	1	1	D	0
{name:Camden,age:16,taskver:20200413.2-rtpen+endQ}	Camden	16	20200413.2-rtpen+endQ	debugtBupz	15	1245	0.2	F	39	p28	1	R	1	50	debugtBupz_16_Camden	30	R	2	1	1	D	0
{name:Camden,age:16,taskver:20200413.2-rtpen+endQ}	Camden	16	20200413.2-rtpen+endQ	debugtBupz	16	1221	1	R	39	p28	0.8	D	0.8	50	debugtBupz_16_Camden	32	D	2	0	1	D	1
{name:Camden,age:16,taskver:20200413.2-rtpen+endQ}	Camden	16	20200413.2-rtpen+endQ	debugtBupz	17	1133	0.2	F	39	p28	0.8	D	0.8	50	debugtBupz_16_Camden	34	D	1	0	1	D	1
{name:Camden,age:16,taskver:20200413.2-rtpen+endQ}	Camden	16	20200413.2-rtpen+endQ	debugtBupz	18	1284	1	R	37	p28	0.8	D	1	50	debugtBupz_16_Camden	36	R	2	1	1	D	0
{name:Camden,age:16,taskver:20200413.2-rtpen+endQ}	Camden	16	20200413.2-rtpen+endQ	debugtBupz	19	823	0.2	F	39	p28	0.8	D	0.8	50	debugtBupz_16_Camden	38	D	1	0	1	D	1
{name:Camden,age:16,taskver:20200413.2-rtpen+endQ}	Camden	16	20200413.2-rtpen+endQ	debugtBupz	20	1333	0.8	D	39	p28	1	R	1	50	debugtBupz_16_Camden	40	R	2	1	1	D	0
{name:Camden,age:16,taskver:20200413.2-rtpen+endQ}	Camden	16	20200413.2-rtpen+endQ	debugtBupz	21	1126	0.2	F	39	p28	0.8	D	0.8	50	debugtBupz_16_Camden	42	D	1	0	1	D	1
{name:Camden,age:16,taskver:20200413.2-rtpen+endQ}	Camden	16	20200413.2-rtpen+endQ	debugtBupz	22	997	0.8	D	37	p28	0.2	F	0.8	50	debugtBupz_16_Camden	44	D	1	0	1	D	1
{name:Camden,age:16,taskver:20200413.2-rtpen+endQ}	Camden	16	20200413.2-rtpen+endQ	debugtBupz	23	975	0.2	F	39	p28	0.8	D	0.8	50	debugtBupz_16_Camden	46	D	1	0	1	D	1
{name:Camden,age:16,taskver:20200413.2-rtpen+endQ}	Camden	16	20200413.2-rtpen+endQ	debugtBupz	24	853	0.8	D	37	p28	0.2	F	0.8	50	debugtBupz_16_Camden	48	D	1	0	1	D	1
{name:Camden,age:16,taskver:20200413.2-rtpen+endQ}	Camden	16	20200413.2-rtpen+endQ	debugtBupz	25	788	0.8	D	37	p28	0.2	F	0.8	50	debugtBupz_16_Camden	50	D	1	0	1	D	1
{name:Camden,age:16,taskver:20200413.2-rtpen+endQ}	Camden	16	20200413.2-rtpen+endQ	debugtBupz	26	813	0.2	F	39	p28	0.8	D	0.8	50	debugtBupz_16_Camden	52	D	1	0	1	D	1
{name:Camden,age:16,taskver:20200413.2-rtpen+endQ}	Camden	16	20200413.2-rtpen+endQ	debugtBupz	27	709	0.2	F	39	p28	0.8	D	0.8	50	debugtBupz_16_Camden	54	D	1	0	1	D	1
{name:Camden,age:16,taskver:20200413.2-rtpen+endQ}	Camden	16	20200413.2-rtpen+endQ	debugtBupz	28	725	0.2	F	39	p28	0.8	D	0.8	50	debugtBupz_16_Camden	56	D	1	0	1	D	1
{name:Camden,age:16,taskver:20200413.2-rtpen+endQ}	Camden	16	20200413.2-rtpen+endQ	debugtBupz	29	766	0.8	D	37	p28	0.2	F	0.8	50	debugtBupz_16_Camden	58	D	1	0	1	D	1
{name:Camden,age:16,taskver:20200413.2-rtpen+endQ}	Camden	16	20200413.2-rtpen+endQ	debugtBupz	30	758	0.8	D	37	p28	0.2	F	0.8	50	debugtBupz_16_Camden	60	D	1	0	1	D	1
{name:Camden,age:16,taskver:20200413.2-rtpen+endQ}	Camden	16	20200413.2-rtpen+endQ	debugtBupz	31	693	0.8	D	37	p28	0.2	F	0.8	0	debugtBupz_16_Camden	62	D	1	0	1	D	1
{name:Camden,age:16,taskver:20200413.2-rtpen+endQ}	Camden	16	20200413.2-rtpen+endQ	debugtBupz	32	744	0.8	D	37	p28	0.2	F	0.8	0	debugtBupz_16_Camden	64	D	1	0	1	D	1
{name:Camden,age:16,taskver:20200413.2-rtpen+endQ}	Camden	16	20200413.2-rtpen+endQ	debugtBupz	33	773	0.8	D	39	p28	0.2	F	0.2	0	debugtBupz_16_Camden	66	F	1	0	1	D	0
{name:Camden,age:16,taskver:20200413.2-rtpen+endQ}	Camden	16	20200413.2-rtpen+endQ	debugtBupz	34	758	0.2	F	39	p28	0.8	D	0.8	0	debugtBupz_16_Camden	68	D	1	0	1	D	1
{name:Camden,age:16,taskver:20200413.2-rtpen+endQ}	Camden	16	20200413.2-rtpen+endQ	debugtBupz	35	752	0.2	F	39	p28	0.8	D	0.8	50	debugtBupz_16_Camden	70	D	1	0	1	D	1
{name:Camden,age:16,taskver:20200413.2-rtpen+endQ}	Camden	16	20200413.2-rtpen+endQ	debugtBupz	36	694	0.2	F	39	p28	0.8	D	0.8	50	debugtBupz_16_Camden	72	D	1	0	1	D	1
{name:Camden,age:16,taskver:20200413.2-rtpen+endQ}	Camden	16	20200413.2-rtpen+endQ	debugtBupz	37	821	0.8	D	37	p28	0.2	F	0.8	0	debugtBupz_16_Camden	74	D	1	0	1	D	1
{name:Camden,age:16,taskver:20200413.2-rtpen+endQ}	Camden	16	20200413.2-rtpen+endQ	debugtBupz	38	686	0.2	F	39	p28	0.8	D	0.8	50	debugtBupz_16_Camden	76	D	1	0	1	D	1
{name:Camden,age:16,taskver:20200413.2-rtpen+endQ}	Camden	16	20200413.2-rtpen+endQ	debugtBupz	39	717	0.2	F	39	p28	0.8	D	0.8	50	debugtBupz_16_Camden	78	D	1	0	1	D	1
{name:Camden,age:16,taskver:20200413.2-rtpen+endQ}	Camden	16	20200413.2-rtpen+endQ	debugtBupz	40	717	0.2	F	39	p28	0.8	D	0.8	50	debugtBupz_16_Camden	80	D	1	0	1	D	1
{name:Camden,age:16,taskver:20200413.2-rtpen+endQ}	Camden	16	20200413.2-rtpen+endQ	debugtBupz	41	781	0.2	D	37	p82	0.8	F	0.2	0	debugtBupz_16_Camden	82	D	1	0	2	D	1
{name:Camden,age:16,taskver:20200413.2-rtpen+endQ}	Camden	16	20200413.2-rtpen+endQ	debugtBupz	42	933	0.2	D	39	p82	1	R	1	50	debugtBupz_16_Camden	84	R	2	1	2	D	0
{name:Camden,age:16,taskver:20200413.2-rtpen+endQ}	Camden	16	20200413.2-rtpen+endQ	debugtBupz	43	787	0.8	F	39	p82	0.2	D	0.2	50	debugtBupz_16_Camden	86	D	1	0	2	D	1
{name:Camden,age:16,taskver:20200413.2-rtpen+endQ}	Camden	16	20200413.2-rtpen+endQ	debugtBupz	44	686	0.2	D	37	p82	0.8	F	0.2	0	debugtBupz_16_Camden	88	D	1	0	2	D	1
{name:Camden,age:16,taskver:20200413.2-rtpen+endQ}	Camden	16	20200413.2-rtpen+endQ	debugtBupz	45	775	0.2	D	37	p82	0.8	F	0.2	0	debugtBupz_16_Camden	90	D	1	0	2	D	1
{name:Camden,age:16,taskver:20200413.2-rtpen+endQ}	Camden	16	20200413.2-rtpen+endQ	debugtBupz	46	599	0.2	D	37	p82	0.8	F	0.2	0	debugtBupz_16_Camden	92	D	1	0	2	D	1
{name:Camden,age:16,taskver:20200413.2-rtpen+endQ}	Camden	16	20200413.2-rtpen+endQ	debugtBupz	47	1029	0.8	F	39	p82	1	R	1	50	debugtBupz_16_Camden	94	R	2	1	2	D	0
{name:Camden,age:16,taskver:20200413.2-rtpen+endQ}	Camden	16	20200413.2-rtpen+endQ	debugtBupz	48	903	0.2	D	39	p82	0.8	F	0.8	50	debugtBupz_16_Camden	96	F	1	0	2	D	0
{name:Camden,age:16,taskver:20200413.2-rtpen+endQ}	Camden	16	20200413.2-rtpen+endQ	debugtBupz	49	1357	0.8	F	39	p82	1	R	1	50	debugtBupz_16_Camden	98	R	2	1	2	D	0
{name:Camden,age:16,taskver:20200413.2-rtpen+endQ}	Camden	16	20200413.2-rtpen+endQ	debugtBupz	50	660	0.2	D	37	p82	0.8	F	0.2	0	debugtBupz_16_Camden	100	D	1	0	2	D	1
{name:Camden,age:16,taskver:20200413.2-rtpen+endQ}	Camden	16	20200413.2-rtpen+endQ	debugtBupz	51	704	0.8	F	39	p82	0.2	D	0.2	50	debugtBupz_16_Camden	102	D	1	0	2	D	1
{name:Camden,age:16,taskver:20200413.2-rtpen+endQ}	Camden	16	20200413.2-rtpen+endQ	debugtBupz	52	565	0.8	F	39	p82	0.2	D	0.2	50	debugtBupz_16_Camden	104	D	1	0	2	D	1
{name:Camden,age:16,taskver:20200413.2-rtpen+endQ}	Camden	16	20200413.2-rtpen+endQ	debugtBupz	53	749	0.8	F	39	p82	0.2	D	0.2	0	debugtBupz_16_Camden	106	D	1	0	2	D	1
{name:Camden,age:16,taskver:20200413.2-rtpen+endQ}	Camden	16	20200413.2-rtpen+endQ	debugtBupz	54	717	0.8	F	39	p82	0.2	D	0.2	50	debugtBupz_16_Camden	108	D	1	0	2	D	1
{name:Camden,age:16,taskver:20200413.2-rtpen+endQ}	Camden	16	20200413.2-rtpen+endQ	debugtBupz	55	696	0.8	F	39	p82	0.2	D	0.2	0	debugtBupz_16_Camden	110	D	1	0	2	D	1
{name:Camden,age:16,taskver:20200413.2-rtpen+endQ}	Camden	16	20200413.2-rtpen+endQ	debugtBupz	56	573	0.2	D	37	p82	0.8	F	0.2	0	debugtBupz_16_Camden	112	D	1	0	2	D	1
{name:Camden,age:16,taskver:20200413.2-rtpen+endQ}	Camden	16	20200413.2-rtpen+endQ	debugtBupz	57	605	0.2	D	37	p82	0.8	F	0.2	0	debugtBupz_16_Camden	114	D	1	0	2	D	1
{name:Camden,age:16,taskver:20200413.2-rtpen+endQ}	Camden	16	20200413.2-rtpen+endQ	debugtBupz	58	766	0.2	D	37	p82	0.8	F	0.2	0	debugtBupz_16_Camden	116	D	1	0	2	D	1
{name:Camden,age:16,taskver:20200413.2-rtpen+endQ}	Camden	16	20200413.2-rtpen+endQ	debugtBupz	59	814	0.2	D	39	p82	0.8	F	0.8	50	debugtBupz_16_Camden	118	F	1	0	2	D	0
{name:Camden,age:16,taskver:20200413.2-rtpen+endQ}	Camden	16	20200413.2-rtpen+endQ	debugtBupz	60	901	0.8	F	37	p82	0.2	D	0.8	50	debugtBupz_16_Camden	120	F	1	0	2	D	0
{name:Camden,age:16,taskver:20200413.2-rtpen+endQ}	Camden	16	20200413.2-rtpen+endQ	debugtBupz	61	1109	1	R	37	p82	0.8	F	1	50	debugtBupz_16_Camden	122	R	2	1	2	D	0
{name:Camden,age:16,taskver:20200413.2-rtpen+endQ}	Camden	16	20200413.2-rtpen+endQ	debugtBupz	62	789	0.2	D	39	p82	0.8	F	0.8	0	debugtBupz_16_Camden	124	F	1	0	2	D	0
{name:Camden,age:16,taskver:20200413.2-rtpen+endQ}	Camden	16	20200413.2-rtpen+endQ	debugtBupz	63	894	1	R	37	p82	0.8	F	1	50	debugtBupz_16_Camden	126	R	2	1	2	D	0
{name:Camden,age:16,taskver:20200413.2-rtpen+endQ}	Camden	16	20200413.2-rtpen+endQ	debugtBupz	64	797	0.8	F	39	p82	0.2	D	0.2	0	debugtBupz_16_Camden	128	D	1	0	2	D	1
{name:Camden,age:16,taskver:20200413.2-rtpen+endQ}	Camden	16	20200413.2-rtpen+endQ	debugtBupz	65	942	0.8	F	39	p82	0.2	D	0.2	0	debugtBupz_16_Camden	130	D	1	0	2	D	1
{name:Camden,age:16,taskver:20200413.2-rtpen+endQ}	Camden	16	20200413.2-rtpen+endQ	debugtBupz	66	773	0.8	F	37	p82	0.2	D	0.8	0	debugtBupz_16_Camden	132	F	1	0	2	D	0
{name:Camden,age:16,taskver:20200413.2-rtpen+endQ}	Camden	16	20200413.2-rtpen+endQ	debugtBupz	67	760	0.2	D	37	p82	0.8	F	0.2	0	debugtBupz_16_Camden	134	D	1	0	2	D	1
{name:Camden,age:16,taskver:20200413.2-rtpen+endQ}	Camden	16	20200413.2-rtpen+endQ	debugtBupz	68	685	0.2	D	37	p82	0.8	F	0.2	0	debugtBupz_16_Camden	136	D	1	0	2	D	1
{name:Camden,age:16,taskver:20200413.2-rtpen+endQ}	Camden	16	20200413.2-rtpen+endQ	debugtBupz	69	934	0.8	F	39	p82	0.2	D	0.2	0	debugtBupz_16_Camden	138	D	1	0	2	D	1
{name:Camden,age:16,taskver:20200413.2-rtpen+endQ}	Camden	16	20200413.2-rtpen+endQ	debugtBupz	70	623	0.2	D	37	p82	0.8	F	0.2	0	debugtBupz_16_Camden	140	D	1	0	2	D	1
{name:Camden,age:16,taskver:20200413.2-rtpen+endQ}	Camden	16	20200413.2-rtpen+endQ	debugtBupz	71	902	0.8	F	37	p82	0.2	D	0.8	50	debugtBupz_16_Camden	142	F	1	0	2	D	0
{name:Camden,age:16,taskver:20200413.2-rtpen+endQ}	Camden	16	20200413.2-rtpen+endQ	debugtBupz	72	973	1	R	37	p82	0.2	D	1	50	debugtBupz_16_Camden	144	R	2	1	2	D	0
{name:Camden,age:16,taskver:20200413.2-rtpen+endQ}	Camden	16	20200413.2-rtpen+endQ	debugtBupz	73	925	1	R	37	p82	0.2	D	1	50	debugtBupz_16_Camden	146	R	2	1	2	D	0
{name:Camden,age:16,taskver:20200413.2-rtpen+endQ}	Camden	16	20200413.2-rtpen+endQ	debugtBupz	74	1062	0.8	F	39	p82	0.2	D	0.2	0	debugtBupz_16_Camden	148	D	1	0	2	D	1
{name:Camden,age:16,taskver:20200413.2-rtpen+endQ}	Camden	16	20200413.2-rtpen+endQ	debugtBupz	75	990	0.2	D	39	p82	1	R	1	50	debugtBupz_16_Camden	150	R	2	1	2	D	0
{name:Camden,age:16,taskver:20200413.2-rtpen+endQ}	Camden	16	20200413.2-rtpen+endQ	debugtBupz	76	790	0.8	F	39	p82	0.2	D	0.2	0	debugtBupz_16_Camden	152	D	1	0	2	D	1
{name:Camden,age:16,taskver:20200413.2-rtpen+endQ}	Camden	16	20200413.2-rtpen+endQ	debugtBupz	77	1016	0.8	F	37	p82	0.2	D	0.8	50	debugtBupz_16_Camden	154	F	1	0	2	D	0
{name:Camden,age:16,taskver:20200413.2-rtpen+endQ}	Camden	16	20200413.2-rtpen+endQ	debugtBupz	78	811	0.8	F	37	p82	0.2	D	0.8	50	debugtBupz_16_Camden	156	F	1	0	2	D	0
{name:Camden,age:16,taskver:20200413.2-rtpen+endQ}	Camden	16	20200413.2-rtpen+endQ	debugtBupz	79	717	0.2	D	39	p82	0.8	F	0.8	50	debugtBupz_16_Camden	158	F	1	0	2	D	0
{name:Camden,age:16,taskver:20200413.2-rtpen+endQ}	Camden	16	20200413.2-rtpen+endQ	debugtBupz	80	669	0.2	D	39	p82	0.8	F	0.8	50	debugtBupz_16_Camden	160	F	1	0	2	D	0
{name:Camden,age:16,taskver:20200413.2-rtpen+endQ}	Camden	16	20200413.2-rtpen+endQ	debugtBupz	81	664	0.2	F	37	p28	0.8	D	0.2	50	debugtBupz_16_Camden	162	F	1	0	3	D	0
{name:Camden,age:16,taskver:20200413.2-rtpen+endQ}	Camden	16	20200413.2-rtpen+endQ	debugtBupz	82	693	0.8	D	39	p28	0.2	F	0.2	0	debugtBupz_16_Camden	164	F	1	0	3	D	0
{name:Camden,age:16,taskver:20200413.2-rtpen+endQ}	Camden	16	20200413.2-rtpen+endQ	debugtBupz	83	933	1	R	37	p28	0.8	D	1	50	debugtBupz_16_Camden	166	R	2	1	3	D	0
{name:Camden,age:16,taskver:20200413.2-rtpen+endQ}	Camden	16	20200413.2-rtpen+endQ	debugtBupz	84	669	0.8	D	39	p28	0.2	F	0.2	0	debugtBupz_16_Camden	168	F	1	0	3	D	0
{name:Camden,age:16,taskver:20200413.2-rtpen+endQ}	Camden	16	20200413.2-rtpen+endQ	debugtBupz	85	607	0.8	D	39	p28	0.2	F	0.2	0	debugtBupz_16_Camden	170	F	1	0	3	D	0
{name:Camden,age:16,taskver:20200413.2-rtpen+endQ}	Camden	16	20200413.2-rtpen+endQ	debugtBupz	86	918	0.2	F	39	p28	1	R	1	50	debugtBupz_16_Camden	172	R	2	1	3	D	0
{name:Camden,age:16,taskver:20200413.2-rtpen+endQ}	Camden	16	20200413.2-rtpen+endQ	debugtBupz	87	1141	0.8	D	39	p28	0.2	F	0.2	0	debugtBupz_16_Camden	174	F	1	0	3	D	0
{name:Camden,age:16,taskver:20200413.2-rtpen+endQ}	Camden	16	20200413.2-rtpen+endQ	debugtBupz	88	990	0.8	D	39	p28	0.2	F	0.2	0	debugtBupz_16_Camden	176	F	1	0	3	D	0
{name:Camden,age:16,taskver:20200413.2-rtpen+endQ}	Camden	16	20200413.2-rtpen+endQ	debugtBupz	89	935	0.2	F	39	p28	0.8	D	0.8	50	debugtBupz_16_Camden	178	D	1	0	3	D	1
{name:Camden,age:16,taskver:20200413.2-rtpen+endQ}	Camden	16	20200413.2-rtpen+endQ	debugtBupz	90	854	0.8	D	39	p28	0.2	F	0.2	0	debugtBupz_16_Camden	180	F	1	0	3	D	0
{name:Camden,age:16,taskver:20200413.2-rtpen+endQ}	Camden	16	20200413.2-rtpen+endQ	debugtBupz	91	958	0.2	F	37	p28	0.8	D	0.2	0	debugtBupz_16_Camden	182	F	1	0	3	D	0
{name:Camden,age:16,taskver:20200413.2-rtpen+endQ}	Camden	16	20200413.2-rtpen+endQ	debugtBupz	92	830	1	R	37	p28	0.8	D	1	50	debugtBupz_16_Camden	184	R	2	1	3	D	0
{name:Camden,age:16,taskver:20200413.2-rtpen+endQ}	Camden	16	20200413.2-rtpen+endQ	debugtBupz	93	1013	0.2	F	39	p28	0.8	D	0.8	50	debugtBupz_16_Camden	186	D	1	0	3	D	1
{name:Camden,age:16,taskver:20200413.2-rtpen+endQ}	Camden	16	20200413.2-rtpen+endQ	debugtBupz	94	776	0.8	D	39	p28	1	R	1	50	debugtBupz_16_Camden	188	R	2	1	3	D	0
{name:Camden,age:16,taskver:20200413.2-rtpen+endQ}	Camden	16	20200413.2-rtpen+endQ	debugtBupz	95	718	0.2	F	39	p28	0.8	D	0.8	50	debugtBupz_16_Camden	190	D	1	0	3	D	1
{name:Camden,age:16,taskver:20200413.2-rtpen+endQ}	Camden	16	20200413.2-rtpen+endQ	debugtBupz	96	773	0.8	D	37	p28	0.2	F	0.8	50	debugtBupz_16_Camden	192	D	1	0	3	D	1
{name:Camden,age:16,taskver:20200413.2-rtpen+endQ}	Camden	16	20200413.2-rtpen+endQ	debugtBupz	97	845	1	R	37	p28	0.2	F	1	50	debugtBupz_16_Camden	194	R	2	1	3	D	0
{name:Camden,age:16,taskver:20200413.2-rtpen+endQ}	Camden	16	20200413.2-rtpen+endQ	debugtBupz	98	669	0.2	F	39	p28	0.8	D	0.8	50	debugtBupz_16_Camden	196	D	1	0	3	D	1
{name:Camden,age:16,taskver:20200413.2-rtpen+endQ}	Camden	16	20200413.2-rtpen+endQ	debugtBupz	99	645	0.8	D	37	p28	0.2	F	0.8	50	debugtBupz_16_Camden	198	D	1	0	3	D	1
{name:Camden,age:16,taskver:20200413.2-rtpen+endQ}	Camden	16	20200413.2-rtpen+endQ	debugtBupz	100	791	0.2	F	39	p28	0.8	D	0.8	0	debugtBupz_16_Camden	200	D	1	0	3	D	1
{name:Camden,age:16,taskver:20200413.2-rtpen+endQ}	Camden	16	20200413.2-rtpen+endQ	debugtBupz	101	851	0.2	F	37	p28	0.8	D	0.2	50	debugtBupz_16_Camden	202	F	1	0	3	D	0
{name:Camden,age:16,taskver:20200413.2-rtpen+endQ}	Camden	16	20200413.2-rtpen+endQ	debugtBupz	102	780	0.2	F	37	p28	0.8	D	0.2	50	debugtBupz_16_Camden	204	F	1	0	3	D	0
{name:Camden,age:16,taskver:20200413.2-rtpen+endQ}	Camden	16	20200413.2-rtpen+endQ	debugtBupz	103	815	0.2	F	39	p28	1	R	1	50	debugtBupz_16_Camden	206	R	2	1	3	D	0
{name:Camden,age:16,taskver:20200413.2-rtpen+endQ}	Camden	16	20200413.2-rtpen+endQ	debugtBupz	104	1054	0.8	D	37	p28	0.2	F	0.8	50	debugtBupz_16_Camden	208	D	1	0	3	D	1
{name:Camden,age:16,taskver:20200413.2-rtpen+endQ}	Camden	16	20200413.2-rtpen+endQ	debugtBupz	105	477	0.8	D	39	p28	1	R	1	50	debugtBupz_16_Camden	210	R	2	1	3	D	0
{name:Camden,age:16,taskver:20200413.2-rtpen+endQ}	Camden	16	20200413.2-rtpen+endQ	debugtBupz	106	381	0.2	F	37	p28	0.8	D	0.2	0	debugtBupz_16_Camden	212	F	1	0	3	D	0
{name:Camden,age:16,taskver:20200413.2-rtpen+endQ}	Camden	16	20200413.2-rtpen+endQ	debugtBupz	107	519	0.8	D	37	p28	0.2	F	0.8	50	debugtBupz_16_Camden	214	D	1	0	3	D	1
{name:Camden,age:16,taskver:20200413.2-rtpen+endQ}	Camden	16	20200413.2-rtpen+endQ	debugtBupz	108	677	0.2	F	39	p28	0.8	D	0.8	50	debugtBupz_16_Camden	216	D	1	0	3	D	1
{name:Camden,age:16,taskver:20200413.2-rtpen+endQ}	Camden	16	20200413.2-rtpen+endQ	debugtBupz	109	575	0.8	D	37	p28	0.2	F	0.8	50	debugtBupz_16_Camden	218	D	1	0	3	D	1
{name:Camden,age:16,taskver:20200413.2-rtpen+endQ}	Camden	16	20200413.2-rtpen+endQ	debugtBupz	110	621	0.2	F	39	p28	0.8	D	0.8	50	debugtBupz_16_Camden	220	D	1	0	3	D	1
{name:Camden,age:16,taskver:20200413.2-rtpen+endQ}	Camden	16	20200413.2-rtpen+endQ	debugtBupz	111	647	0.8	D	37	p28	0.2	F	0.8	50	debugtBupz_16_Camden	222	D	1	0	3	D	1
{name:Camden,age:16,taskver:20200413.2-rtpen+endQ}	Camden	16	20200413.2-rtpen+endQ	debugtBupz	112	566	0.8	D	37	p28	0.2	F	0.8	50	debugtBupz_16_Camden	224	D	1	0	3	D	1
{name:Camden,age:16,taskver:20200413.2-rtpen+endQ}	Camden	16	20200413.2-rtpen+endQ	debugtBupz	113	683	0.8	D	37	p28	0.2	F	0.8	50	debugtBupz_16_Camden	226	D	1	0	3	D	1
{name:Camden,age:16,taskver:20200413.2-rtpen+endQ}	Camden	16	20200413.2-rtpen+endQ	debugtBupz	114	661	0.2	F	39	p28	0.8	D	0.8	50	debugtBupz_16_Camden	228	D	1	0	3	D	1
{name:Camden,age:16,taskver:20200413.2-rtpen+endQ}	Camden	16	20200413.2-rtpen+endQ	debugtBupz	115	628	1	R	37	p28	0.2	F	1	50	debugtBupz_16_Camden	230	R	2	1	3	D	0
{name:Camden,age:16,taskver:20200413.2-rtpen+endQ}	Camden	16	20200413.2-rtpen+endQ	debugtBupz	116	741	0.8	D	37	p28	0.2	F	0.8	50	debugtBupz_16_Camden	232	D	1	0	3	D	1
{name:Camden,age:16,taskver:20200413.2-rtpen+endQ}	Camden	16	20200413.2-rtpen+endQ	debugtBupz	117	620	0.8	D	39	p28	0.2	F	0.2	50	debugtBupz_16_Camden	234	F	1	0	3	D	0
{name:Camden,age:16,taskver:20200413.2-rtpen+endQ}	Camden	16	20200413.2-rtpen+endQ	debugtBupz	118	654	0.2	F	39	p28	0.8	D	0.8	50	debugtBupz_16_Camden	236	D	1	0	3	D	1
{name:Camden,age:16,taskver:20200413.2-rtpen+endQ}	Camden	16	20200413.2-rtpen+endQ	debugtBupz	119	677	0.2	F	37	p28	0.8	D	0.2	0	debugtBupz_16_Camden	238	F	1	0	3	D	0
{name:Camden,age:16,taskver:20200413.2-rtpen+endQ}	Camden	16	20200413.2-rtpen+endQ	debugtBupz	120	720	0.2	F	37	p28	0.8	D	0.2	0	debugtBupz_16_Camden	240	F	1	0	3	D	0
{name:Camden,age:16,taskver:20200413.2-rtpen+endQ}	Camden	16	20200413.2-rtpen+endQ	debugtBupz	121	636	1	R	37	p82	0.8	F	1	50	debugtBupz_16_Camden	242	R	2	1	4	D	0
{name:Camden,age:16,taskver:20200413.2-rtpen+endQ}	Camden	16	20200413.2-rtpen+endQ	debugtBupz	122	742	0.2	D	39	p82	0.8	F	0.8	50	debugtBupz_16_Camden	244	F	1	0	4	D	0
{name:Camden,age:16,taskver:20200413.2-rtpen+endQ}	Camden	16	20200413.2-rtpen+endQ	debugtBupz	123	799	0.8	F	39	p82	0.2	D	0.2	50	debugtBupz_16_Camden	246	D	1	0	4	D	1
{name:Camden,age:16,taskver:20200413.2-rtpen+endQ}	Camden	16	20200413.2-rtpen+endQ	debugtBupz	124	797	0.2	D	39	p82	1	R	1	50	debugtBupz_16_Camden	248	R	2	1	4	D	0
{name:Camden,age:16,taskver:20200413.2-rtpen+endQ}	Camden	16	20200413.2-rtpen+endQ	debugtBupz	125	675	0.8	F	39	p82	0.2	D	0.2	0	debugtBupz_16_Camden	250	D	1	0	4	D	1
{name:Camden,age:16,taskver:20200413.2-rtpen+endQ}	Camden	16	20200413.2-rtpen+endQ	debugtBupz	126	661	0.8	F	37	p82	0.2	D	0.8	0	debugtBupz_16_Camden	252	F	1	0	4	D	0
{name:Camden,age:16,taskver:20200413.2-rtpen+endQ}	Camden	16	20200413.2-rtpen+endQ	debugtBupz	127	653	0.2	D	37	p82	0.8	F	0.2	0	debugtBupz_16_Camden	254	D	1	0	4	D	1
{name:Camden,age:16,taskver:20200413.2-rtpen+endQ}	Camden	16	20200413.2-rtpen+endQ	debugtBupz	128	695	0.8	F	37	p82	0.2	D	0.8	50	debugtBupz_16_Camden	256	F	1	0	4	D	0
{name:Camden,age:16,taskver:20200413.2-rtpen+endQ}	Camden	16	20200413.2-rtpen+endQ	debugtBupz	129	688	0.2	D	37	p82	0.8	F	0.2	0	debugtBupz_16_Camden	258	D	1	0	4	D	1
{name:Camden,age:16,taskver:20200413.2-rtpen+endQ}	Camden	16	20200413.2-rtpen+endQ	debugtBupz	130	750	0.8	F	37	p82	0.2	D	0.8	50	debugtBupz_16_Camden	260	F	1	0	4	D	0
{name:Camden,age:16,taskver:20200413.2-rtpen+endQ}	Camden	16	20200413.2-rtpen+endQ	debugtBupz	131	629	0.2	D	39	p82	0.8	F	0.8	50	debugtBupz_16_Camden	262	F	1	0	4	D	0
{name:Camden,age:16,taskver:20200413.2-rtpen+endQ}	Camden	16	20200413.2-rtpen+endQ	debugtBupz	132	670	1	R	37	p82	0.8	F	1	50	debugtBupz_16_Camden	264	R	2	1	4	D	0
{name:Camden,age:16,taskver:20200413.2-rtpen+endQ}	Camden	16	20200413.2-rtpen+endQ	debugtBupz	133	678	0.2	D	37	p82	0.8	F	0.2	0	debugtBupz_16_Camden	266	D	1	0	4	D	1
{name:Camden,age:16,taskver:20200413.2-rtpen+endQ}	Camden	16	20200413.2-rtpen+endQ	debugtBupz	134	592	0.2	D	37	p82	0.8	F	0.2	50	debugtBupz_16_Camden	268	D	1	0	4	D	1
{name:Camden,age:16,taskver:20200413.2-rtpen+endQ}	Camden	16	20200413.2-rtpen+endQ	debugtBupz	135	678	0.8	F	39	p82	0.2	D	0.2	0	debugtBupz_16_Camden	270	D	1	0	4	D	1
{name:Camden,age:16,taskver:20200413.2-rtpen+endQ}	Camden	16	20200413.2-rtpen+endQ	debugtBupz	136	573	0.8	F	39	p82	0.2	D	0.2	0	debugtBupz_16_Camden	272	D	1	0	4	D	1
{name:Camden,age:16,taskver:20200413.2-rtpen+endQ}	Camden	16	20200413.2-rtpen+endQ	debugtBupz	137	685	0.8	F	39	p82	0.2	D	0.2	0	debugtBupz_16_Camden	274	D	1	0	4	D	1
{name:Camden,age:16,taskver:20200413.2-rtpen+endQ}	Camden	16	20200413.2-rtpen+endQ	debugtBupz	138	664	0.2	D	39	p82	0.8	F	0.8	50	debugtBupz_16_Camden	276	F	1	0	4	D	0
{name:Camden,age:16,taskver:20200413.2-rtpen+endQ}	Camden	16	20200413.2-rtpen+endQ	debugtBupz	139	789	0.8	F	37	p82	0.2	D	0.8	0	debugtBupz_16_Camden	278	F	1	0	4	D	0
{name:Camden,age:16,taskver:20200413.2-rtpen+endQ}	Camden	16	20200413.2-rtpen+endQ	debugtBupz	140	630	0.8	F	39	p82	0.2	D	0.2	0	debugtBupz_16_Camden	280	D	1	0	4	D	1
{name:Camden,age:16,taskver:20200413.2-rtpen+endQ}	Camden	16	20200413.2-rtpen+endQ	debugtBupz	141	622	0.2	D	39	p82	1	R	1	50	debugtBupz_16_Camden	282	R	2	1	4	D	0
{name:Camden,age:16,taskver:20200413.2-rtpen+endQ}	Camden	16	20200413.2-rtpen+endQ	debugtBupz	142	629	0.8	F	39	p82	1	R	1	50	debugtBupz_16_Camden	284	R	2	1	4	D	0
{name:Camden,age:16,taskver:20200413.2-rtpen+endQ}	Camden	16	20200413.2-rtpen+endQ	debugtBupz	143	581	0.2	D	39	p82	0.8	F	0.8	50	debugtBupz_16_Camden	286	F	1	0	4	D	0
{name:Camden,age:16,taskver:20200413.2-rtpen+endQ}	Camden	16	20200413.2-rtpen+endQ	debugtBupz	144	604	0.2	D	37	p82	0.8	F	0.2	0	debugtBupz_16_Camden	288	D	1	0	4	D	1
{name:Camden,age:16,taskver:20200413.2-rtpen+endQ}	Camden	16	20200413.2-rtpen+endQ	debugtBupz	145	589	1	R	37	p82	0.2	D	1	50	debugtBupz_16_Camden	290	R	2	1	4	D	0
{name:Camden,age:16,taskver:20200413.2-rtpen+endQ}	Camden	16	20200413.2-rtpen+endQ	debugtBupz	146	654	0.2	D	37	p82	0.8	F	0.2	0	debugtBupz_16_Camden	292	D	1	0	4	D	1
{name:Camden,age:16,taskver:20200413.2-rtpen+endQ}	Camden	16	20200413.2-rtpen+endQ	debugtBupz	147	653	0.2	D	37	p82	0.8	F	0.2	0	debugtBupz_16_Camden	294	D	1	0	4	D	1
{name:Camden,age:16,taskver:20200413.2-rtpen+endQ}	Camden	16	20200413.2-rtpen+endQ	debugtBupz	148	573	0.8	F	37	p82	0.2	D	0.8	50	debugtBupz_16_Camden	296	F	1	0	4	D	0
{name:Camden,age:16,taskver:20200413.2-rtpen+endQ}	Camden	16	20200413.2-rtpen+endQ	debugtBupz	149	662	0.2	D	37	p82	0.8	F	0.2	0	debugtBupz_16_Camden	298	D	1	0	4	D	1
{name:Camden,age:16,taskver:20200413.2-rtpen+endQ}	Camden	16	20200413.2-rtpen+endQ	debugtBupz	150	639	0.2	D	37	p82	0.8	F	0.2	0	debugtBupz_16_Camden	300	D	1	0	4	D	1
{name:Camden,age:16,taskver:20200413.2-rtpen+endQ}	Camden	16	20200413.2-rtpen+endQ	debugtBupz	151	622	0.2	D	39	p82	0.8	F	0.8	50	debugtBupz_16_Camden	302	F	1	0	4	D	0
{name:Camden,age:16,taskver:20200413.2-rtpen+endQ}	Camden	16	20200413.2-rtpen+endQ	debugtBupz	152	613	0.8	F	39	p82	1	R	1	50	debugtBupz_16_Camden	304	R	2	1	4	D	0
{name:Camden,age:16,taskver:20200413.2-rtpen+endQ}	Camden	16	20200413.2-rtpen+endQ	debugtBupz	153	636	0.2	D	39	p82	0.8	F	0.8	0	debugtBupz_16_Camden	306	F	1	0	4	D	0
{name:Camden,age:16,taskver:20200413.2-rtpen+endQ}	Camden	16	20200413.2-rtpen+endQ	debugtBupz	154	558	0.2	D	39	p82	0.8	F	0.8	50	debugtBupz_16_Camden	308	F	1	0	4	D	0
{name:Camden,age:16,taskver:20200413.2-rtpen+endQ}	Camden	16	20200413.2-rtpen+endQ	debugtBupz	155	628	0.8	F	37	p82	0.2	D	0.8	50	debugtBupz_16_Camden	310	F	1	0	4	D	0
{name:Camden,age:16,taskver:20200413.2-rtpen+endQ}	Camden	16	20200413.2-rtpen+endQ	debugtBupz	156	637	0.8	F	37	p82	0.2	D	0.8	50	debugtBupz_16_Camden	312	F	1	0	4	D	0
{name:Camden,age:16,taskver:20200413.2-rtpen+endQ}	Camden	16	20200413.2-rtpen+endQ	debugtBupz	157	621	1	R	37	p82	0.2	D	1	50	debugtBupz_16_Camden	314	R	2	1	4	D	0
{name:Camden,age:16,taskver:20200413.2-rtpen+endQ}	Camden	16	20200413.2-rtpen+endQ	debugtBupz	158	629	0.8	F	37	p82	0.2	D	0.8	50	debugtBupz_16_Camden	316	F	1	0	4	D	0
{name:Camden,age:16,taskver:20200413.2-rtpen+endQ}	Camden	16	20200413.2-rtpen+endQ	debugtBupz	159	693	0.8	F	39	p82	0.2	D	0.2	0	debugtBupz_16_Camden	318	D	1	0	4	D	1
{name:Camden,age:16,taskver:20200413.2-rtpen+endQ}	Camden	16	20200413.2-rtpen+endQ	debugtBupz	160	612	0.8	F	37	p82	0.2	D	0.8	0	debugtBupz_16_Camden	320	F	1	0	4	D	0
{name:Camden,age:16,taskver:20200413.2-rtpen+endQ}	Camden	16	20200413.2-rtpen+endQ	debugtBupz	161	613	1	D	37	p11	1	F	1	50	debugtBupz_16_Camden	322	D	1	0	5	D	1
{name:Camden,age:16,taskver:20200413.2-rtpen+endQ}	Camden	16	20200413.2-rtpen+endQ	debugtBupz	162	636	1	D	37	p11	1	F	1	50	debugtBupz_16_Camden	324	D	1	0	5	D	1
{name:Camden,age:16,taskver:20200413.2-rtpen+endQ}	Camden	16	20200413.2-rtpen+endQ	debugtBupz	163	656	1	F	37	p11	1	D	1	50	debugtBupz_16_Camden	326	F	1	0	5	D	0
{name:Camden,age:16,taskver:20200413.2-rtpen+endQ}	Camden	16	20200413.2-rtpen+endQ	debugtBupz	164	612	1	F	37	p11	1	D	1	50	debugtBupz_16_Camden	328	F	1	0	5	D	0
{name:Camden,age:16,taskver:20200413.2-rtpen+endQ}	Camden	16	20200413.2-rtpen+endQ	debugtBupz	165	694	1	F	37	p11	1	R	1	50	debugtBupz_16_Camden	330	F	2	0	5	D	0
{name:Camden,age:16,taskver:20200413.2-rtpen+endQ}	Camden	16	20200413.2-rtpen+endQ	debugtBupz	166	604	1	D	37	p11	1	F	1	50	debugtBupz_16_Camden	332	D	1	0	5	D	1
{name:Camden,age:16,taskver:20200413.2-rtpen+endQ}	Camden	16	20200413.2-rtpen+endQ	debugtBupz	167	553	1	D	37	p11	1	F	1	50	debugtBupz_16_Camden	334	D	1	0	5	D	1
{name:Camden,age:16,taskver:20200413.2-rtpen+endQ}	Camden	16	20200413.2-rtpen+endQ	debugtBupz	168	541	1	D	37	p11	1	F	1	50	debugtBupz_16_Camden	336	D	1	0	5	D	1
{name:Camden,age:16,taskver:20200413.2-rtpen+endQ}	Camden	16	20200413.2-rtpen+endQ	debugtBupz	169	589	1	F	37	p11	1	D	1	50	debugtBupz_16_Camden	338	F	1	0	5	D	0
{name:Camden,age:16,taskver:20200413.2-rtpen+endQ}	Camden	16	20200413.2-rtpen+endQ	debugtBupz	170	639	1	R	37	p11	1	D	1	50	debugtBupz_16_Camden	340	R	2	1	5	D	0
{name:Camden,age:16,taskver:20200413.2-rtpen+endQ}	Camden	16	20200413.2-rtpen+endQ	debugtBupz	171	542	1	D	37	p11	1	F	1	50	debugtBupz_16_Camden	342	D	1	0	5	D	1
{name:Camden,age:16,taskver:20200413.2-rtpen+endQ}	Camden	16	20200413.2-rtpen+endQ	debugtBupz	172	501	1	F	37	p11	1	D	1	50	debugtBupz_16_Camden	344	F	1	0	5	D	0
{name:Camden,age:16,taskver:20200413.2-rtpen+endQ}	Camden	16	20200413.2-rtpen+endQ	debugtBupz	173	541	1	R	37	p11	1	D	1	50	debugtBupz_16_Camden	346	R	2	1	5	D	0
{name:Camden,age:16,taskver:20200413.2-rtpen+endQ}	Camden	16	20200413.2-rtpen+endQ	debugtBupz	174	549	1	F	37	p11	1	D	1	50	debugtBupz_16_Camden	348	F	1	0	5	D	0
{name:Camden,age:16,taskver:20200413.2-rtpen+endQ}	Camden	16	20200413.2-rtpen+endQ	debugtBupz	175	470	1	F	37	p11	1	D	1	50	debugtBupz_16_Camden	350	F	1	0	5	D	0
{name:Camden,age:16,taskver:20200413.2-rtpen+endQ}	Camden	16	20200413.2-rtpen+endQ	debugtBupz	176	516	1	F	37	p11	1	D	1	50	debugtBupz_16_Camden	352	F	1	0	5	D	0
{name:Camden,age:16,taskver:20200413.2-rtpen+endQ}	Camden	16	20200413.2-rtpen+endQ	debugtBupz	177	540	1	R	37	p11	1	F	1	50	debugtBupz_16_Camden	354	R	2	1	5	D	0
{name:Camden,age:16,taskver:20200413.2-rtpen+endQ}	Camden	16	20200413.2-rtpen+endQ	debugtBupz	178	460	1	F	37	p11	1	D	1	50	debugtBupz_16_Camden	356	F	1	0	5	D	0
{name:Camden,age:16,taskver:20200413.2-rtpen+endQ}	Camden	16	20200413.2-rtpen+endQ	debugtBupz	179	357	1	D	37	p11	1	F	1	50	debugtBupz_16_Camden	358	D	1	0	5	D	1
{name:Camden,age:16,taskver:20200413.2-rtpen+endQ}	Camden	16	20200413.2-rtpen+endQ	debugtBupz	180	373	1	F	37	p11	1	D	1	50	debugtBupz_16_Camden	360	F	1	0	5	D	0
{name:Camden,age:16,taskver:20200413.2-rtpen+endQ}	Camden	16	20200413.2-rtpen+endQ	debugtBupz	181	381	1	D	37	p11	1	F	1	50	debugtBupz_16_Camden	362	D	1	0	5	D	1
{name:Camden,age:16,taskver:20200413.2-rtpen+endQ}	Camden	16	20200413.2-rtpen+endQ	debugtBupz	182	510	1	R	37	p11	1	D	1	50	debugtBupz_16_Camden	364	R	2	1	5	D	0
{name:Camden,age:16,taskver:20200413.2-rtpen+endQ}	Camden	16	20200413.2-rtpen+endQ	debugtBupz	183	461	1	D	37	p11	1	F	1	50	debugtBupz_16_Camden	366	D	1	0	5	D	1
{name:Camden,age:16,taskver:20200413.2-rtpen+endQ}	Camden	16	20200413.2-rtpen+endQ	debugtBupz	184	560	1	D	37	p11	1	R	1	50	debugtBupz_16_Camden	368	D	2	0	5	D	1
{name:Camden,age:16,taskver:20200413.2-rtpen+endQ}	Camden	16	20200413.2-rtpen+endQ	debugtBupz	185	454	1	F	37	p11	1	D	1	50	debugtBupz_16_Camden	370	F	1	0	5	D	0
{name:Camden,age:16,taskver:20200413.2-rtpen+endQ}	Camden	16	20200413.2-rtpen+endQ	debugtBupz	186	494	1	F	39	p11	1	R	1	50	debugtBupz_16_Camden	372	R	2	1	5	D	0
{name:Camden,age:16,taskver:20200413.2-rtpen+endQ}	Camden	16	20200413.2-rtpen+endQ	debugtBupz	187	525	1	F	37	p11	1	D	1	50	debugtBupz_16_Camden	374	F	1	0	5	D	0
{name:Camden,age:16,taskver:20200413.2-rtpen+endQ}	Camden	16	20200413.2-rtpen+endQ	debugtBupz	188	436	1	D	37	p11	1	F	1	50	debugtBupz_16_Camden	376	D	1	0	5	D	1
{name:Camden,age:16,taskver:20200413.2-rtpen+endQ}	Camden	16	20200413.2-rtpen+endQ	debugtBupz	189	392	1	D	37	p11	1	F	1	50	debugtBupz_16_Camden	378	D	1	0	5	D	1
{name:Camden,age:16,taskver:20200413.2-rtpen+endQ}	Camden	16	20200413.2-rtpen+endQ	debugtBupz	190	430	1	F	37	p11	1	D	1	50	debugtBupz_16_Camden	380	F	1	0	5	D	0
{name:Camden,age:16,taskver:20200413.2-rtpen+endQ}	Camden	16	20200413.2-rtpen+endQ	debugtBupz	191	461	1	F	37	p11	1	D	1	50	debugtBupz_16_Camden	382	F	1	0	5	D	0
{name:Camden,age:16,taskver:20200413.2-rtpen+endQ}	Camden	16	20200413.2-rtpen+endQ	debugtBupz	192	317	1	F	37	p11	1	D	1	50	debugtBupz_16_Camden	384	F	1	0	5	D	0
{name:Camden,age:16,taskver:20200413.2-rtpen+endQ}	Camden	16	20200413.2-rtpen+endQ	debugtBupz	193	373	1	F	37	p11	1	D	1	50	debugtBupz_16_Camden	386	F	1	0	5	D	0
{name:Camden,age:16,taskver:20200413.2-rtpen+endQ}	Camden	16	20200413.2-rtpen+endQ	debugtBupz	194	311	1	F	37	p11	1	D	1	50	debugtBupz_16_Camden	388	F	1	0	5	D	0
{name:Camden,age:16,taskver:20200413.2-rtpen+endQ}	Camden	16	20200413.2-rtpen+endQ	debugtBupz	195	422	1	D	37	p11	1	F	1	50	debugtBupz_16_Camden	390	D	1	0	5	D	1
{name:Camden,age:16,taskver:20200413.2-rtpen+endQ}	Camden	16	20200413.2-rtpen+endQ	debugtBupz	196	373	1	F	37	p11	1	D	1	50	debugtBupz_16_Camden	392	F	1	0	5	D	0
{name:Camden,age:16,taskver:20200413.2-rtpen+endQ}	Camden	16	20200413.2-rtpen+endQ	debugtBupz	197	405	1	D	37	p11	1	F	1	50	debugtBupz_16_Camden	394	D	1	0	5	D	1
{name:Camden,age:16,taskver:20200413.2-rtpen+endQ}	Camden	16	20200413.2-rtpen+endQ	debugtBupz	198	383	1	D	37	p11	1	F	1	50	debugtBupz_16_Camden	396	D	1	0	5	D	1
{name:Camden,age:16,taskver:20200413.2-rtpen+endQ}	Camden	16	20200413.2-rtpen+endQ	debugtBupz	199	443	1	F	37	p11	1	D	1	50	debugtBupz_16_Camden	398	F	1	0	5	D	0
{name:Camden,age:16,taskver:20200413.2-rtpen+endQ}	Camden	16	20200413.2-rtpen+endQ	debugtBupz	200	477	1	R	37	p11	1	F	1	50	debugtBupz_16_Camden	400	R	2	1	5	D	0
{name:Camden,age:16,taskver:20200413.2-rtpen+endQ}	Camden	16	20200413.2-rtpen+endQ	debugtBupz	201	469	1	F	37	p11	1	D	1	50	debugtBupz_16_Camden	402	F	1	0	5	D	0
{name:Camden,age:16,taskver:20200413.2-rtpen+endQ}	Camden	16	20200413.2-rtpen+endQ	debugtBupz	202	388	1	D	37	p11	1	F	1	50	debugtBupz_16_Camden	404	D	1	0	5	D	1
{name:Camden,age:16,taskver:20200413.2-rtpen+endQ}	Camden	16	20200413.2-rtpen+endQ	debugtBupz	203	325	1	F	37	p11	1	D	1	50	debugtBupz_16_Camden	406	F	1	0	5	D	0
{name:Camden,age:16,taskver:20200413.2-rtpen+endQ}	Camden	16	20200413.2-rtpen+endQ	debugtBupz	204	352	1	F	37	p11	1	D	1	50	debugtBupz_16_Camden	408	F	1	0	5	D	0
{name:Camden,age:16,taskver:20200413.2-rtpen+endQ}	Camden	16	20200413.2-rtpen+endQ	debugtBupz	205	383	1	F	37	p11	1	D	1	50	debugtBupz_16_Camden	410	F	1	0	5	D	0
{name:Camden,age:16,taskver:20200413.2-rtpen+endQ}	Camden	16	20200413.2-rtpen+endQ	debugtBupz	206	421	1	D	37	p11	1	R	1	50	debugtBupz_16_Camden	412	D	2	0	5	D	1
{name:Camden,age:16,taskver:20200413.2-rtpen+endQ}	Camden	16	20200413.2-rtpen+endQ	debugtBupz	207	367	1	D	37	p11	1	F	1	50	debugtBupz_16_Camden	414	D	1	0	5	D	1
{name:Camden,age:16,taskver:20200413.2-rtpen+endQ}	Camden	16	20200413.2-rtpen+endQ	debugtBupz	208	381	1	F	37	p11	1	D	1	50	debugtBupz_16_Camden	416	F	1	0	5	D	0
{name:Camden,age:16,taskver:20200413.2-rtpen+endQ}	Camden	16	20200413.2-rtpen+endQ	debugtBupz	209	430	1	F	39	p11	1	R	1	50	debugtBupz_16_Camden	418	R	2	1	5	D	0
{name:Camden,age:16,taskver:20200413.2-rtpen+endQ}	Camden	16	20200413.2-rtpen+endQ	debugtBupz	210	396	1	D	37	p11	1	F	1	50	debugtBupz_16_Camden	420	D	1	0	5	D	1
{name:Camden,age:16,taskver:20200413.2-rtpen+endQ}	Camden	16	20200413.2-rtpen+endQ	debugtBupz	211	307	1	D	37	p11	1	F	1	50	debugtBupz_16_Camden	422	D	1	0	5	D	1
{name:Camden,age:16,taskver:20200413.2-rtpen+endQ}	Camden	16	20200413.2-rtpen+endQ	debugtBupz	212	366	1	D	37	p11	1	F	1	50	debugtBupz_16_Camden	424	D	1	0	5	D	1
{name:Camden,age:16,taskver:20200413.2-rtpen+endQ}	Camden	16	20200413.2-rtpen+endQ	debugtBupz	213	310	1	D	37	p11	1	F	1	50	debugtBupz_16_Camden	426	D	1	0	5	D	1
{name:Camden,age:16,taskver:20200413.2-rtpen+endQ}	Camden	16	20200413.2-rtpen+endQ	debugtBupz	214	365	1	D	37	p11	1	F	1	50	debugtBupz_16_Camden	428	D	1	0	5	D	1
{name:Camden,age:16,taskver:20200413.2-rtpen+endQ}	Camden	16	20200413.2-rtpen+endQ	debugtBupz	215	348	1	D	37	p11	1	F	1	50	debugtBupz_16_Camden	430	D	1	0	5	D	1
{name:Camden,age:16,taskver:20200413.2-rtpen+endQ}	Camden	16	20200413.2-rtpen+endQ	debugtBupz	216	486	1	F	39	p11	1	R	1	50	debugtBupz_16_Camden	432	R	2	1	5	D	0
{name:Camden,age:16,taskver:20200413.2-rtpen+endQ}	Camden	16	20200413.2-rtpen+endQ	debugtBupz	217	412	1	F	37	p11	1	D	1	50	debugtBupz_16_Camden	434	F	1	0	5	D	0
{name:Camden,age:16,taskver:20200413.2-rtpen+endQ}	Camden	16	20200413.2-rtpen+endQ	debugtBupz	218	422	1	F	37	p11	1	D	1	50	debugtBupz_16_Camden	436	F	1	0	5	D	0
{name:Camden,age:16,taskver:20200413.2-rtpen+endQ}	Camden	16	20200413.2-rtpen+endQ	debugtBupz	219	374	1	F	37	p11	1	D	1	50	debugtBupz_16_Camden	438	F	1	0	5	D	0
{name:Camden,age:16,taskver:20200413.2-rtpen+endQ}	Camden	16	20200413.2-rtpen+endQ	debugtBupz	220	341	1	F	37	p11	1	D	1	50	debugtBupz_16_Camden	440	F	1	0	5	D	0
{name:Camden,age:16,taskver:20200413.2-rtpen+endQ}	Camden	16	20200413.2-rtpen+endQ	debugtBupz	221	360	1	R	37	p11	1	F	1	50	debugtBupz_16_Camden	442	R	2	1	5	D	0
{name:Camden,age:16,taskver:20200413.2-rtpen+endQ}	Camden	16	20200413.2-rtpen+endQ	debugtBupz	222	301	1	F	37	p11	1	D	1	50	debugtBupz_16_Camden	444	F	1	0	5	D	0
{name:Camden,age:16,taskver:20200413.2-rtpen+endQ}	Camden	16	20200413.2-rtpen+endQ	debugtBupz	223	285	1	D	37	p11	1	F	1	50	debugtBupz_16_Camden	446	D	1	0	5	D	1
{name:Camden,age:16,taskver:20200413.2-rtpen+endQ}	Camden	16	20200413.2-rtpen+endQ	debugtBupz	224	334	1	D	37	p11	1	F	1	50	debugtBupz_16_Camden	448	D	1	0	5	D	1
{name:Camden,age:16,taskver:20200413.2-rtpen+endQ}	Camden	16	20200413.2-rtpen+endQ	debugtBupz	225	300	1	R	37	p11	1	D	1	50	debugtBupz_16_Camden	450	R	2	1	5	D	0
{name:Camden,age:16,taskver:20200413.2-rtpen+endQ}	Camden	16	20200413.2-rtpen+endQ	debugtBupz	226	284	1	F	37	p11	1	D	1	50	debugtBupz_16_Camden	452	F	1	0	5	D	0
{name:Camden,age:16,taskver:20200413.2-rtpen+endQ}	Camden	16	20200413.2-rtpen+endQ	debugtBupz	227	429	1	R	37	p11	1	F	1	50	debugtBupz_16_Camden	454	R	2	1	5	D	0
{name:Camden,age:16,taskver:20200413.2-rtpen+endQ}	Camden	16	20200413.2-rtpen+endQ	debugtBupz	228	381	1	D	37	p11	1	F	1	50	debugtBupz_16_Camden	456	D	1	0	5	D	1
{name:Camden,age:16,taskver:20200413.2-rtpen+endQ}	Camden	16	20200413.2-rtpen+endQ	debugtBupz	229	294	1	D	37	p11	1	F	1	50	debugtBupz_16_Camden	458	D	1	0	5	D	1
{name:Camden,age:16,taskver:20200413.2-rtpen+endQ}	Camden	16	20200413.2-rtpen+endQ	debugtBupz	230	229	1	F	37	p11	1	D	1	50	debugtBupz_16_Camden	460	F	1	0	5	D	0
{name:Camden,age:16,taskver:20200413.2-rtpen+endQ}	Camden	16	20200413.2-rtpen+endQ	debugtBupz	231	332	1	D	37	p11	1	F	1	50	debugtBupz_16_Camden	462	D	1	0	5	D	1
{name:Camden,age:16,taskver:20200413.2-rtpen+endQ}	Camden	16	20200413.2-rtpen+endQ	debugtBupz	232	348	1	D	37	p11	1	F	1	50	debugtBupz_16_Camden	464	D	1	0	5	D	1
{name:Camden,age:16,taskver:20200413.2-rtpen+endQ}	Camden	16	20200413.2-rtpen+endQ	debugtBupz	233	341	1	D	37	p11	1	F	1	50	debugtBupz_16_Camden	466	D	1	0	5	D	1
{name:Camden,age:16,taskver:20200413.2-rtpen+endQ}	Camden	16	20200413.2-rtpen+endQ	debugtBupz	234	333	1	D	37	p11	1	R	1	50	debugtBupz_16_Camden	468	D	2	0	5	D	1
{name:Camden,age:16,taskver:20200413.2-rtpen+endQ}	Camden	16	20200413.2-rtpen+endQ	debugtBupz	235	301	1	F	37	p11	1	D	1	50	debugtBupz_16_Camden	470	F	1	0	5	D	0
{name:Camden,age:16,taskver:20200413.2-rtpen+endQ}	Camden	16	20200413.2-rtpen+endQ	debugtBupz	236	236	1	D	37	p11	1	F	1	50	debugtBupz_16_Camden	472	D	1	0	5	D	1
{name:Camden,age:16,taskver:20200413.2-rtpen+endQ}	Camden	16	20200413.2-rtpen+endQ	debugtBupz	237	311	1	D	37	p11	1	F	1	50	debugtBupz_16_Camden	474	D	1	0	5	D	1
{name:Camden,age:16,taskver:20200413.2-rtpen+endQ}	Camden	16	20200413.2-rtpen+endQ	debugtBupz	238	311	1	D	37	p11	1	F	1	50	debugtBupz_16_Camden	476	D	1	0	5	D	1
{name:Camden,age:16,taskver:20200413.2-rtpen+endQ}	Camden	16	20200413.2-rtpen+endQ	debugtBupz	239	341	1	F	37	p11	1	D	1	50	debugtBupz_16_Camden	478	F	1	0	5	D	0
{name:Camden,age:16,taskver:20200413.2-rtpen+endQ}	Camden	16	20200413.2-rtpen+endQ	debugtBupz	240	254	1	D	37	p11	1	R	1	50	debugtBupz_16_Camden	480	D	2	0	5	D	1
{name:Doug,age:26,taskver:20200410.2-blk40+inst}	Doug	26	20200410.2-blk40+inst	debugnvZPE	1	4845.27499997057	0.2	F	37	p28	1	R	0.2	500	debugnvZPE_26_Doug	2	F	2	0	1	D	0
{name:Doug,age:26,taskver:20200410.2-blk40+inst}	Doug	26	20200410.2-blk40+inst	debugnvZPE	2	1954.50500003062	0.8	D	39	p28	0.2	F	0.2	0	debugnvZPE_26_Doug	4	F	1	0	1	D	0
{name:Doug,age:26,taskver:20200410.2-blk40+inst}	Doug	26	20200410.2-blk40+inst	debugnvZPE	3	1525.5200000247	0.2	F	37	p28	0.8	D	0.2	0	debugnvZPE_26_Doug	6	F	1	0	1	D	0
{name:Doug,age:26,taskver:20200410.2-blk40+inst}	Doug	26	20200410.2-blk40+inst	debugnvZPE	4	4018.26499996241	0.2	F	37	p28	0.8	D	0.2	0	debugnvZPE_26_Doug	8	F	1	0	1	D	0
{name:Doug,age:26,taskver:20200410.2-blk40+inst}	Doug	26	20200410.2-blk40+inst	debugnvZPE	5	3708.41999992263	0.8	D	37	p28	0.2	F	0.8	500	debugnvZPE_26_Doug	10	D	1	0	1	D	1
{name:Doug,age:26,taskver:20200410.2-blk40+inst}	Doug	26	20200410.2-blk40+inst	debugnvZPE	6	3027.78000000399	0.8	D	37	p28	0.2	F	0.8	500	debugnvZPE_26_Doug	12	D	1	0	1	D	1
{name:Doug,age:26,taskver:20200410.2-blk40+inst}	Doug	26	20200410.2-blk40+inst	debugnvZPE	7	1292.13499999605	0.8	D	37	p28	0.2	F	0.8	500	debugnvZPE_26_Doug	14	D	1	0	1	D	1
{name:Doug,age:26,taskver:20200410.2-blk40+inst}	Doug	26	20200410.2-blk40+inst	debugnvZPE	8	1285.40499997325	0.2	F	39	p28	0.8	D	0.8	0	debugnvZPE_26_Doug	16	D	1	0	1	D	1
{name:Doug,age:26,taskver:20200410.2-blk40+inst}	Doug	26	20200410.2-blk40+inst	debugnvZPE	9	1860.54500006139	0.8	D	37	p28	0.2	F	0.8	500	debugnvZPE_26_Doug	18	D	1	0	1	D	1
{name:Doug,age:26,taskver:20200410.2-blk40+inst}	Doug	26	20200410.2-blk40+inst	debugnvZPE	10	1743.59500000719	0.2	F	37	p28	0.8	D	0.2	0	debugnvZPE_26_Doug	20	F	1	0	1	D	0
{name:Doug,age:26,taskver:20200410.2-blk40+inst}	Doug	26	20200410.2-blk40+inst	debugnvZPE	11	4621.44499993883	1	R	39	p28	0.2	F	0.2	0	debugnvZPE_26_Doug	22	F	2	0	1	D	0
{name:Doug,age:26,taskver:20200410.2-blk40+inst}	Doug	26	20200410.2-blk40+inst	debugnvZPE	12	4617.39499995019	0.2	F	39	p28	0.8	D	0.8	500	debugnvZPE_26_Doug	24	D	1	0	1	D	1
{name:Doug,age:26,taskver:20200410.2-blk40+inst}	Doug	26	20200410.2-blk40+inst	debugnvZPE	13	1563.00999992527	0.8	D	37	p28	1	R	0.8	500	debugnvZPE_26_Doug	26	D	2	0	1	D	1
{name:Doug,age:26,taskver:20200410.2-blk40+inst}	Doug	26	20200410.2-blk40+inst	debugnvZPE	14	869.545000023209	0.8	D	37	p28	0.2	F	0.8	500	debugnvZPE_26_Doug	28	D	1	0	1	D	1
{name:Doug,age:26,taskver:20200410.2-blk40+inst}	Doug	26	20200410.2-blk40+inst	debugnvZPE	15	640.565000008792	0.8	D	37	p28	0.2	F	0.8	500	debugnvZPE_26_Doug	30	D	1	0	1	D	1
{name:Doug,age:26,taskver:20200410.2-blk40+inst}	Doug	26	20200410.2-blk40+inst	debugnvZPE	16	702.174999983981	0.2	F	39	p28	0.8	D	0.8	500	debugnvZPE_26_Doug	32	D	1	0	1	D	1
{name:Doug,age:26,taskver:20200410.2-blk40+inst}	Doug	26	20200410.2-blk40+inst	debugnvZPE	17	742.230000090785	0.8	D	37	p28	0.2	F	0.8	500	debugnvZPE_26_Doug	34	D	1	0	1	D	1
{name:Doug,age:26,taskver:20200410.2-blk40+inst}	Doug	26	20200410.2-blk40+inst	debugnvZPE	18	631.345000001602	0.2	F	39	p28	0.8	D	0.8	0	debugnvZPE_26_Doug	36	D	1	0	1	D	1
{name:Doug,age:26,taskver:20200410.2-blk40+inst}	Doug	26	20200410.2-blk40+inst	debugnvZPE	19	1422.49500006437	0.8	D	39	p28	0.2	F	0.2	0	debugnvZPE_26_Doug	38	F	1	0	1	D	0
{name:Doug,age:26,taskver:20200410.2-blk40+inst}	Doug	26	20200410.2-blk40+inst	debugnvZPE	20	9117.10499995388	0.8	D	37	p28	0.2	F	0.8	500	debugnvZPE_26_Doug	40	D	1	0	1	D	1
{name:Doug,age:26,taskver:20200410.2-blk40+inst}	Doug	26	20200410.2-blk40+inst	debugnvZPE	21	969.745000009425	0.2	F	39	p28	0.8	D	0.8	500	debugnvZPE_26_Doug	42	D	1	0	1	D	1
{name:Doug,age:26,taskver:20200410.2-blk40+inst}	Doug	26	20200410.2-blk40+inst	debugnvZPE	22	2128.82500002161	0.2	F	39	p28	0.8	D	0.8	500	debugnvZPE_26_Doug	44	D	1	0	1	D	1
{name:Doug,age:26,taskver:20200410.2-blk40+inst}	Doug	26	20200410.2-blk40+inst	debugnvZPE	23	1082.80500001274	0.2	F	39	p28	0.8	D	0.8	500	debugnvZPE_26_Doug	46	D	1	0	1	D	1
{name:Doug,age:26,taskver:20200410.2-blk40+inst}	Doug	26	20200410.2-blk40+inst	debugnvZPE	24	595.094999996945	0.8	D	37	p28	0.2	F	0.8	500	debugnvZPE_26_Doug	48	D	1	0	1	D	1
{name:Doug,age:26,taskver:20200410.2-blk40+inst}	Doug	26	20200410.2-blk40+inst	debugnvZPE	25	728.635000064969	0.8	D	37	p28	0.2	F	0.8	500	debugnvZPE_26_Doug	50	D	1	0	1	D	1
{name:Doug,age:26,taskver:20200410.2-blk40+inst}	Doug	26	20200410.2-blk40+inst	debugnvZPE	26	613.445000024512	0.2	F	39	p28	0.8	D	0.8	500	debugnvZPE_26_Doug	52	D	1	0	1	D	1
{name:Doug,age:26,taskver:20200410.2-blk40+inst}	Doug	26	20200410.2-blk40+inst	debugnvZPE	27	1178.79999999423	1	R	39	p28	0.8	D	0.8	500	debugnvZPE_26_Doug	54	D	2	0	1	D	1
{name:Doug,age:26,taskver:20200410.2-blk40+inst}	Doug	26	20200410.2-blk40+inst	debugnvZPE	28	2353.56999991927	0.8	D	37	p28	0.2	F	0.8	500	debugnvZPE_26_Doug	56	D	1	0	1	D	1
{name:Doug,age:26,taskver:20200410.2-blk40+inst}	Doug	26	20200410.2-blk40+inst	debugnvZPE	29	1889.3200000748	1	R	37	p28	0.2	F	1	500	debugnvZPE_26_Doug	58	R	2	1	1	D	0
{name:Doug,age:26,taskver:20200410.2-blk40+inst}	Doug	26	20200410.2-blk40+inst	debugnvZPE	30	2309.43999998271	0.8	D	37	p28	0.2	F	0.8	500	debugnvZPE_26_Doug	60	D	1	0	1	D	1
{name:Doug,age:26,taskver:20200410.2-blk40+inst}	Doug	26	20200410.2-blk40+inst	debugnvZPE	31	697.035000077449	0.8	D	37	p28	0.2	F	0.8	500	debugnvZPE_26_Doug	62	D	1	0	1	D	1
{name:Doug,age:26,taskver:20200410.2-blk40+inst}	Doug	26	20200410.2-blk40+inst	debugnvZPE	32	928.030000068247	0.8	D	37	p28	1	R	0.8	500	debugnvZPE_26_Doug	64	D	2	0	1	D	1
{name:Doug,age:26,taskver:20200410.2-blk40+inst}	Doug	26	20200410.2-blk40+inst	debugnvZPE	33	2100.17999995034	0.2	F	39	p28	0.8	D	0.8	500	debugnvZPE_26_Doug	66	D	1	0	1	D	1
{name:Doug,age:26,taskver:20200410.2-blk40+inst}	Doug	26	20200410.2-blk40+inst	debugnvZPE	34	628.854999900796	0.2	F	39	p28	0.8	D	0.8	0	debugnvZPE_26_Doug	68	D	1	0	1	D	1
{name:Doug,age:26,taskver:20200410.2-blk40+inst}	Doug	26	20200410.2-blk40+inst	debugnvZPE	35	1388.41999997385	0.2	F	37	p28	0.8	D	0.2	0	debugnvZPE_26_Doug	70	F	1	0	1	D	0
{name:Doug,age:26,taskver:20200410.2-blk40+inst}	Doug	26	20200410.2-blk40+inst	debugnvZPE	36	953.325000009499	0.2	F	39	p28	0.8	D	0.8	500	debugnvZPE_26_Doug	72	D	1	0	1	D	1
{name:Doug,age:26,taskver:20200410.2-blk40+inst}	Doug	26	20200410.2-blk40+inst	debugnvZPE	37	4587.18499995302	1	R	37	p28	0.8	D	1	500	debugnvZPE_26_Doug	74	R	2	1	1	D	0
{name:Doug,age:26,taskver:20200410.2-blk40+inst}	Doug	26	20200410.2-blk40+inst	debugnvZPE	38	3272.08500006236	0.2	F	39	p28	0.8	D	0.8	0	debugnvZPE_26_Doug	76	D	1	0	1	D	1
{name:Doug,age:26,taskver:20200410.2-blk40+inst}	Doug	26	20200410.2-blk40+inst	debugnvZPE	39	7757.97999999486	0.2	F	39	p28	1	R	1	500	debugnvZPE_26_Doug	78	R	2	1	1	D	0
{name:Doug,age:26,taskver:20200410.2-blk40+inst}	Doug	26	20200410.2-blk40+inst	debugnvZPE	40	2501.67999998666	0.8	D	37	p28	0.2	F	0.8	500	debugnvZPE_26_Doug	80	D	1	0	1	D	1
{name:Doug,age:26,taskver:20200410.2-blk40+inst}	Doug	26	20200410.2-blk40+inst	debugnvZPE	41	2793.35499997251	0.8	F	39	p82	0.2	D	0.2	0	debugnvZPE_26_Doug	82	D	1	0	2	D	1
{name:Doug,age:26,taskver:20200410.2-blk40+inst}	Doug	26	20200410.2-blk40+inst	debugnvZPE	42	10120.2300000004	0.8	F	39	p82	1	R	1	500	debugnvZPE_26_Doug	84	R	2	1	2	D	0
{name:Doug,age:26,taskver:20200410.2-blk40+inst}	Doug	26	20200410.2-blk40+inst	debugnvZPE	43	2003.73500003479	0.2	D	37	p82	0.8	F	0.2	0	debugnvZPE_26_Doug	86	D	1	0	2	D	1
{name:Doug,age:26,taskver:20200410.2-blk40+inst}	Doug	26	20200410.2-blk40+inst	debugnvZPE	44	3994.93000004441	0.8	F	37	p82	0.2	D	0.8	500	debugnvZPE_26_Doug	88	F	1	0	2	D	0
{name:Doug,age:26,taskver:20200410.2-blk40+inst}	Doug	26	20200410.2-blk40+inst	debugnvZPE	45	948.589999927208	0.8	F	37	p82	0.2	D	0.8	500	debugnvZPE_26_Doug	90	F	1	0	2	D	0
{name:Doug,age:26,taskver:20200410.2-blk40+inst}	Doug	26	20200410.2-blk40+inst	debugnvZPE	46	1811.33999989834	0.2	D	39	p82	0.8	F	0.8	500	debugnvZPE_26_Doug	92	F	1	0	2	D	0
{name:Doug,age:26,taskver:20200410.2-blk40+inst}	Doug	26	20200410.2-blk40+inst	debugnvZPE	47	1756.10500003677	0.8	F	37	p82	0.2	D	0.8	500	debugnvZPE_26_Doug	94	F	1	0	2	D	0
{name:Doug,age:26,taskver:20200410.2-blk40+inst}	Doug	26	20200410.2-blk40+inst	debugnvZPE	48	1668.78000006545	0.8	F	37	p82	0.2	D	0.8	500	debugnvZPE_26_Doug	96	F	1	0	2	D	0
{name:Doug,age:26,taskver:20200410.2-blk40+inst}	Doug	26	20200410.2-blk40+inst	debugnvZPE	49	645.295000053011	0.2	D	39	p82	0.8	F	0.8	500	debugnvZPE_26_Doug	98	F	1	0	2	D	0
{name:Doug,age:26,taskver:20200410.2-blk40+inst}	Doug	26	20200410.2-blk40+inst	debugnvZPE	50	936.894999933429	0.8	F	37	p82	0.2	D	0.8	500	debugnvZPE_26_Doug	100	F	1	0	2	D	0
{name:Doug,age:26,taskver:20200410.2-blk40+inst}	Doug	26	20200410.2-blk40+inst	debugnvZPE	51	549.204999930225	0.2	D	39	p82	0.8	F	0.8	500	debugnvZPE_26_Doug	102	F	1	0	2	D	0
{name:Doug,age:26,taskver:20200410.2-blk40+inst}	Doug	26	20200410.2-blk40+inst	debugnvZPE	52	2315.37000008393	0.2	D	39	p82	1	R	1	500	debugnvZPE_26_Doug	104	R	2	1	2	D	0
{name:Doug,age:26,taskver:20200410.2-blk40+inst}	Doug	26	20200410.2-blk40+inst	debugnvZPE	53	2056.32500001229	1	R	37	p82	0.8	F	1	500	debugnvZPE_26_Doug	106	R	2	1	2	D	0
{name:Doug,age:26,taskver:20200410.2-blk40+inst}	Doug	26	20200410.2-blk40+inst	debugnvZPE	54	1577.1399999503	1	R	37	p82	0.2	D	1	500	debugnvZPE_26_Doug	108	R	2	1	2	D	0
{name:Doug,age:26,taskver:20200410.2-blk40+inst}	Doug	26	20200410.2-blk40+inst	debugnvZPE	55	1942.21999996807	1	R	37	p82	0.8	F	1	500	debugnvZPE_26_Doug	110	R	2	1	2	D	0
{name:Doug,age:26,taskver:20200410.2-blk40+inst}	Doug	26	20200410.2-blk40+inst	debugnvZPE	56	5553.03500010632	0.8	F	37	p82	0.2	D	0.8	500	debugnvZPE_26_Doug	112	F	1	0	2	D	0
{name:Doug,age:26,taskver:20200410.2-blk40+inst}	Doug	26	20200410.2-blk40+inst	debugnvZPE	57	2443.4599999804	0.2	D	39	p82	0.8	F	0.8	500	debugnvZPE_26_Doug	114	F	1	0	2	D	0
{name:Doug,age:26,taskver:20200410.2-blk40+inst}	Doug	26	20200410.2-blk40+inst	debugnvZPE	58	1056.24499998521	0.8	F	37	p82	0.2	D	0.8	500	debugnvZPE_26_Doug	116	F	1	0	2	D	0
{name:Doug,age:26,taskver:20200410.2-blk40+inst}	Doug	26	20200410.2-blk40+inst	debugnvZPE	59	6566.49999995716	0.8	F	37	p82	0.2	D	0.8	0	debugnvZPE_26_Doug	118	F	1	0	2	D	0
{name:Doug,age:26,taskver:20200410.2-blk40+inst}	Doug	26	20200410.2-blk40+inst	debugnvZPE	60	1003.8549999008	0.8	F	39	p82	0.2	D	0.2	0	debugnvZPE_26_Doug	120	D	1	0	2	D	1
{name:Doug,age:26,taskver:20200410.2-blk40+inst}	Doug	26	20200410.2-blk40+inst	debugnvZPE	61	4813.07000003289	0.2	D	39	p82	1	R	1	500	debugnvZPE_26_Doug	122	R	2	1	2	D	0
{name:Doug,age:26,taskver:20200410.2-blk40+inst}	Doug	26	20200410.2-blk40+inst	debugnvZPE	62	3094.5350000402	0.8	F	37	p82	0.2	D	0.8	500	debugnvZPE_26_Doug	124	F	1	0	2	D	0
{name:Doug,age:26,taskver:20200410.2-blk40+inst}	Doug	26	20200410.2-blk40+inst	debugnvZPE	63	1869.23499999102	0.2	D	39	p82	0.8	F	0.8	500	debugnvZPE_26_Doug	126	F	1	0	2	D	0
{name:Doug,age:26,taskver:20200410.2-blk40+inst}	Doug	26	20200410.2-blk40+inst	debugnvZPE	64	4949.51499998569	0.2	D	37	p82	0.8	F	0.2	0	debugnvZPE_26_Doug	128	D	1	0	2	D	1
{name:Doug,age:26,taskver:20200410.2-blk40+inst}	Doug	26	20200410.2-blk40+inst	debugnvZPE	65	1448.77999997698	0.2	D	39	p82	0.8	F	0.8	500	debugnvZPE_26_Doug	130	F	1	0	2	D	0
{name:Doug,age:26,taskver:20200410.2-blk40+inst}	Doug	26	20200410.2-blk40+inst	debugnvZPE	66	694.144999957643	0.2	D	39	p82	0.8	F	0.8	500	debugnvZPE_26_Doug	132	F	1	0	2	D	0
{name:Doug,age:26,taskver:20200410.2-blk40+inst}	Doug	26	20200410.2-blk40+inst	debugnvZPE	67	1748.30999993719	0.8	F	39	p82	0.2	D	0.2	0	debugnvZPE_26_Doug	134	D	1	0	2	D	1
{name:Doug,age:26,taskver:20200410.2-blk40+inst}	Doug	26	20200410.2-blk40+inst	debugnvZPE	68	5674.37499994412	0.2	D	39	p82	0.8	F	0.8	500	debugnvZPE_26_Doug	136	F	1	0	2	D	0
{name:Doug,age:26,taskver:20200410.2-blk40+inst}	Doug	26	20200410.2-blk40+inst	debugnvZPE	69	525.22500010673	0.2	D	39	p82	0.8	F	0.8	500	debugnvZPE_26_Doug	138	F	1	0	2	D	0
{name:Doug,age:26,taskver:20200410.2-blk40+inst}	Doug	26	20200410.2-blk40+inst	debugnvZPE	70	1015.03500004765	0.8	F	37	p82	0.2	D	0.8	0	debugnvZPE_26_Doug	140	F	1	0	2	D	0
{name:Doug,age:26,taskver:20200410.2-blk40+inst}	Doug	26	20200410.2-blk40+inst	debugnvZPE	71	13779.3600000441	0.2	D	39	p82	0.8	F	0.8	500	debugnvZPE_26_Doug	142	F	1	0	2	D	0
{name:Doug,age:26,taskver:20200410.2-blk40+inst}	Doug	26	20200410.2-blk40+inst	debugnvZPE	72	790.429999935441	0.8	F	37	p82	0.2	D	0.8	500	debugnvZPE_26_Doug	144	F	1	0	2	D	0
{name:Doug,age:26,taskver:20200410.2-blk40+inst}	Doug	26	20200410.2-blk40+inst	debugnvZPE	73	594.294999958947	0.2	D	39	p82	0.8	F	0.8	500	debugnvZPE_26_Doug	146	F	1	0	2	D	0
{name:Doug,age:26,taskver:20200410.2-blk40+inst}	Doug	26	20200410.2-blk40+inst	debugnvZPE	74	954.475000035018	0.8	F	37	p82	0.2	D	0.8	500	debugnvZPE_26_Doug	148	F	1	0	2	D	0
{name:Doug,age:26,taskver:20200410.2-blk40+inst}	Doug	26	20200410.2-blk40+inst	debugnvZPE	75	898.209999897517	0.2	D	39	p82	0.8	F	0.8	500	debugnvZPE_26_Doug	150	F	1	0	2	D	0
{name:Doug,age:26,taskver:20200410.2-blk40+inst}	Doug	26	20200410.2-blk40+inst	debugnvZPE	76	571.220000041649	0.2	D	39	p82	0.8	F	0.8	500	debugnvZPE_26_Doug	152	F	1	0	2	D	0
{name:Doug,age:26,taskver:20200410.2-blk40+inst}	Doug	26	20200410.2-blk40+inst	debugnvZPE	77	626.829999964684	0.2	D	39	p82	0.8	F	0.8	0	debugnvZPE_26_Doug	154	F	1	0	2	D	0
{name:Doug,age:26,taskver:20200410.2-blk40+inst}	Doug	26	20200410.2-blk40+inst	debugnvZPE	78	2204.63000005111	0.8	F	39	p82	1	R	1	500	debugnvZPE_26_Doug	156	R	2	1	2	D	0
{name:Doug,age:26,taskver:20200410.2-blk40+inst}	Doug	26	20200410.2-blk40+inst	debugnvZPE	79	1351.30500001833	0.8	F	37	p82	0.2	D	0.8	500	debugnvZPE_26_Doug	158	F	1	0	2	D	0
{name:Doug,age:26,taskver:20200410.2-blk40+inst}	Doug	26	20200410.2-blk40+inst	debugnvZPE	80	2389.91500006523	1	R	37	p82	0.2	D	1	500	debugnvZPE_26_Doug	160	R	2	1	2	D	0
{name:Doug,age:26,taskver:20200410.2-blk40+inst}	Doug	26	20200410.2-blk40+inst	debugnvZPE	81	2981.93999996874	0.2	F	37	p28	0.8	D	0.2	500	debugnvZPE_26_Doug	162	F	1	0	3	D	0
{name:Doug,age:26,taskver:20200410.2-blk40+inst}	Doug	26	20200410.2-blk40+inst	debugnvZPE	82	1951.05999999214	1	R	37	p28	0.2	F	1	500	debugnvZPE_26_Doug	164	R	2	1	3	D	0
{name:Doug,age:26,taskver:20200410.2-blk40+inst}	Doug	26	20200410.2-blk40+inst	debugnvZPE	83	2056.32500001229	0.2	F	37	p28	0.8	D	0.2	0	debugnvZPE_26_Doug	166	F	1	0	3	D	0
{name:Doug,age:26,taskver:20200410.2-blk40+inst}	Doug	26	20200410.2-blk40+inst	debugnvZPE	84	1261.64500007872	0.8	D	39	p28	0.2	F	0.2	0	debugnvZPE_26_Doug	168	F	1	0	3	D	0
{name:Doug,age:26,taskver:20200410.2-blk40+inst}	Doug	26	20200410.2-blk40+inst	debugnvZPE	85	4298.56999998447	0.2	F	39	p28	0.8	D	0.8	500	debugnvZPE_26_Doug	170	D	1	0	3	D	1
{name:Doug,age:26,taskver:20200410.2-blk40+inst}	Doug	26	20200410.2-blk40+inst	debugnvZPE	86	615.98000000231	0.2	F	39	p28	0.8	D	0.8	500	debugnvZPE_26_Doug	172	D	1	0	3	D	1
{name:Doug,age:26,taskver:20200410.2-blk40+inst}	Doug	26	20200410.2-blk40+inst	debugnvZPE	87	635.260000010021	0.8	D	37	p28	0.2	F	0.8	500	debugnvZPE_26_Doug	174	D	1	0	3	D	1
{name:Doug,age:26,taskver:20200410.2-blk40+inst}	Doug	26	20200410.2-blk40+inst	debugnvZPE	88	572.099999990314	0.8	D	37	p28	0.2	F	0.8	500	debugnvZPE_26_Doug	176	D	1	0	3	D	1
{name:Doug,age:26,taskver:20200410.2-blk40+inst}	Doug	26	20200410.2-blk40+inst	debugnvZPE	89	1137.93500000611	1	R	37	p28	0.8	D	1	500	debugnvZPE_26_Doug	178	R	2	1	3	D	0
{name:Doug,age:26,taskver:20200410.2-blk40+inst}	Doug	26	20200410.2-blk40+inst	debugnvZPE	90	812.380000017583	0.8	D	37	p28	0.2	F	0.8	500	debugnvZPE_26_Doug	180	D	1	0	3	D	1
{name:Doug,age:26,taskver:20200410.2-blk40+inst}	Doug	26	20200410.2-blk40+inst	debugnvZPE	91	605.570000014268	0.8	D	37	p28	0.2	F	0.8	500	debugnvZPE_26_Doug	182	D	1	0	3	D	1
{name:Doug,age:26,taskver:20200410.2-blk40+inst}	Doug	26	20200410.2-blk40+inst	debugnvZPE	92	591.179999988526	0.8	D	37	p28	0.2	F	0.8	500	debugnvZPE_26_Doug	184	D	1	0	3	D	1
{name:Doug,age:26,taskver:20200410.2-blk40+inst}	Doug	26	20200410.2-blk40+inst	debugnvZPE	93	828.365000081249	0.2	F	39	p28	0.8	D	0.8	500	debugnvZPE_26_Doug	186	D	1	0	3	D	1
{name:Doug,age:26,taskver:20200410.2-blk40+inst}	Doug	26	20200410.2-blk40+inst	debugnvZPE	94	646.264999988489	0.2	F	39	p28	0.8	D	0.8	500	debugnvZPE_26_Doug	188	D	1	0	3	D	1
{name:Doug,age:26,taskver:20200410.2-blk40+inst}	Doug	26	20200410.2-blk40+inst	debugnvZPE	95	1390.4399999883	0.8	D	39	p28	1	R	1	500	debugnvZPE_26_Doug	190	R	2	1	3	D	0
{name:Doug,age:26,taskver:20200410.2-blk40+inst}	Doug	26	20200410.2-blk40+inst	debugnvZPE	96	621.299999998882	0.2	F	39	p28	0.8	D	0.8	0	debugnvZPE_26_Doug	192	D	1	0	3	D	1
{name:Doug,age:26,taskver:20200410.2-blk40+inst}	Doug	26	20200410.2-blk40+inst	debugnvZPE	97	1297.35999996774	0.8	D	39	p28	0.2	F	0.2	0	debugnvZPE_26_Doug	194	F	1	0	3	D	0
{name:Doug,age:26,taskver:20200410.2-blk40+inst}	Doug	26	20200410.2-blk40+inst	debugnvZPE	98	2267.41500000935	0.2	F	39	p28	0.8	D	0.8	500	debugnvZPE_26_Doug	196	D	1	0	3	D	1
{name:Doug,age:26,taskver:20200410.2-blk40+inst}	Doug	26	20200410.2-blk40+inst	debugnvZPE	99	494.864999898709	0.2	F	39	p28	0.8	D	0.8	500	debugnvZPE_26_Doug	198	D	1	0	3	D	1
{name:Doug,age:26,taskver:20200410.2-blk40+inst}	Doug	26	20200410.2-blk40+inst	debugnvZPE	100	779.330000048503	0.8	D	37	p28	1	R	0.8	500	debugnvZPE_26_Doug	200	D	2	0	3	D	1
{name:Doug,age:26,taskver:20200410.2-blk40+inst}	Doug	26	20200410.2-blk40+inst	debugnvZPE	101	9811.95999996271	0.8	D	37	p28	0.2	F	0.8	500	debugnvZPE_26_Doug	202	D	1	0	3	D	1
{name:Doug,age:26,taskver:20200410.2-blk40+inst}	Doug	26	20200410.2-blk40+inst	debugnvZPE	102	614.209999912418	0.2	F	39	p28	0.8	D	0.8	500	debugnvZPE_26_Doug	204	D	1	0	3	D	1
{name:Doug,age:26,taskver:20200410.2-blk40+inst}	Doug	26	20200410.2-blk40+inst	debugnvZPE	103	649.229999980889	0.2	F	39	p28	0.8	D	0.8	500	debugnvZPE_26_Doug	206	D	1	0	3	D	1
{name:Doug,age:26,taskver:20200410.2-blk40+inst}	Doug	26	20200410.2-blk40+inst	debugnvZPE	104	981.605000095442	0.8	D	37	p28	0.2	F	0.8	500	debugnvZPE_26_Doug	208	D	1	0	3	D	1
{name:Doug,age:26,taskver:20200410.2-blk40+inst}	Doug	26	20200410.2-blk40+inst	debugnvZPE	105	1042.41500003263	0.8	D	37	p28	0.2	F	0.8	500	debugnvZPE_26_Doug	210	D	1	0	3	D	1
{name:Doug,age:26,taskver:20200410.2-blk40+inst}	Doug	26	20200410.2-blk40+inst	debugnvZPE	106	525.055000092834	0.2	F	39	p28	0.8	D	0.8	500	debugnvZPE_26_Doug	212	D	1	0	3	D	1
{name:Doug,age:26,taskver:20200410.2-blk40+inst}	Doug	26	20200410.2-blk40+inst	debugnvZPE	107	735.074999975041	0.8	D	37	p28	0.2	F	0.8	500	debugnvZPE_26_Doug	214	D	1	0	3	D	1
{name:Doug,age:26,taskver:20200410.2-blk40+inst}	Doug	26	20200410.2-blk40+inst	debugnvZPE	108	1993.52500005625	1	R	39	p28	0.8	D	0.8	500	debugnvZPE_26_Doug	216	D	2	0	3	D	1
{name:Doug,age:26,taskver:20200410.2-blk40+inst}	Doug	26	20200410.2-blk40+inst	debugnvZPE	109	2604.17000006419	0.8	D	37	p28	0.2	F	0.8	500	debugnvZPE_26_Doug	218	D	1	0	3	D	1
{name:Doug,age:26,taskver:20200410.2-blk40+inst}	Doug	26	20200410.2-blk40+inst	debugnvZPE	110	1325.04000002518	1	R	39	p28	0.2	F	0.2	0	debugnvZPE_26_Doug	220	F	2	0	3	D	0
{name:Doug,age:26,taskver:20200410.2-blk40+inst}	Doug	26	20200410.2-blk40+inst	debugnvZPE	111	1118.09000000358	0.2	F	39	p28	0.8	D	0.8	0	debugnvZPE_26_Doug	222	D	1	0	3	D	1
{name:Doug,age:26,taskver:20200410.2-blk40+inst}	Doug	26	20200410.2-blk40+inst	debugnvZPE	112	947.784999967553	0.2	F	37	p28	0.8	D	0.2	0	debugnvZPE_26_Doug	224	F	1	0	3	D	0
{name:Doug,age:26,taskver:20200410.2-blk40+inst}	Doug	26	20200410.2-blk40+inst	debugnvZPE	113	1351.10500000883	0.8	D	37	p28	0.2	F	0.8	0	debugnvZPE_26_Doug	226	D	1	0	3	D	1
{name:Doug,age:26,taskver:20200410.2-blk40+inst}	Doug	26	20200410.2-blk40+inst	debugnvZPE	114	2956.2750000041	0.2	F	39	p28	0.8	D	0.8	0	debugnvZPE_26_Doug	228	D	1	0	3	D	1
{name:Doug,age:26,taskver:20200410.2-blk40+inst}	Doug	26	20200410.2-blk40+inst	debugnvZPE	115	612.184999976307	0.2	F	37	p28	1	R	0.2	0	debugnvZPE_26_Doug	230	F	2	0	3	D	0
{name:Doug,age:26,taskver:20200410.2-blk40+inst}	Doug	26	20200410.2-blk40+inst	debugnvZPE	116	2987.97499993816	0.8	D	37	p28	0.2	F	0.8	500	debugnvZPE_26_Doug	232	D	1	0	3	D	1
{name:Doug,age:26,taskver:20200410.2-blk40+inst}	Doug	26	20200410.2-blk40+inst	debugnvZPE	117	555.799999972805	0.8	D	37	p28	0.2	F	0.8	0	debugnvZPE_26_Doug	234	D	1	0	3	D	1
{name:Doug,age:26,taskver:20200410.2-blk40+inst}	Doug	26	20200410.2-blk40+inst	debugnvZPE	118	1308.12499998137	0.8	D	39	p28	0.2	F	0.2	0	debugnvZPE_26_Doug	236	F	1	0	3	D	0
{name:Doug,age:26,taskver:20200410.2-blk40+inst}	Doug	26	20200410.2-blk40+inst	debugnvZPE	119	1800.19500001799	0.2	F	37	p28	0.8	D	0.2	0	debugnvZPE_26_Doug	238	F	1	0	3	D	0
{name:Doug,age:26,taskver:20200410.2-blk40+inst}	Doug	26	20200410.2-blk40+inst	debugnvZPE	120	2137.59499997832	0.2	F	39	p28	1	R	1	500	debugnvZPE_26_Doug	240	R	2	1	3	D	0
