subjInfo	name	age	taskver	subjID	trial	rt	leftP	leftCard	key	block	rightP	rightCard	choice	pts	ses_id	abstrial	choiceCard	choiceType	choseRed	blocknum	firstGood	choseFirst
{name:Doug,age:26,taskver:20200410.2-blk40+inst}	Doug	26	20200410.2-blk40+inst	debugnvZPE	1	4845.27499997057	0.2	F	37	p28	1	R	0.2	500	debugnvZPE_26_Doug	2	F	2	0	1	D	0
{name:Doug,age:26,taskver:20200410.2-blk40+inst}	Doug	26	20200410.2-blk40+inst	debugnvZPE	2	1954.50500003062	0.8	D	39	p28	0.2	F	0.2	0	debugnvZPE_26_Doug	4	F	1	0	1	D	0
{name:Doug,age:26,taskver:20200410.2-blk40+inst}	Doug	26	20200410.2-blk40+inst	debugnvZPE	3	1525.5200000247	0.2	F	37	p28	0.8	D	0.2	0	debugnvZPE_26_Doug	6	F	1	0	1	D	0
{name:Doug,age:26,taskver:20200410.2-blk40+inst}	Doug	26	20200410.2-blk40+inst	debugnvZPE	4	4018.26499996241	0.2	F	37	p28	0.8	D	0.2	0	debugnvZPE_26_Doug	8	F	1	0	1	D	0
{name:Doug,age:26,taskver:20200410.2-blk40+inst}	Doug	26	20200410.2-blk40+inst	debugnvZPE	5	3708.41999992263	0.8	D	37	p28	0.2	F	0.8	500	debugnvZPE_26_Doug	10	D	1	0	1	D	1
{name:Doug,age:26,taskver:20200410.2-blk40+inst}	Doug	26	20200410.2-blk40+inst	debugnvZPE	6	3027.78000000399	0.8	D	37	p28	0.2	F	0.8	500	debugnvZPE_26_Doug	12	D	1	0	1	D	1
{name:Doug,age:26,taskver:20200410.2-blk40+inst}	Doug	26	20200410.2-blk40+inst	debugnvZPE	7	1292.13499999605	0.8	D	37	p28	0.2	F	0.8	500	debugnvZPE_26_Doug	14	D	1	0	1	D	1
{name:Doug,age:26,taskver:20200410.2-blk40+inst}	Doug	26	20200410.2-blk40+inst	debugnvZPE	8	1285.40499997325	0.2	F	39	p28	0.8	D	0.8	0	debugnvZPE_26_Doug	16	D	1	0	1	D	1
{name:Doug,age:26,taskver:20200410.2-blk40+inst}	Doug	26	20200410.2-blk40+inst	debugnvZPE	9	1860.54500006139	0.8	D	37	p28	0.2	F	0.8	500	debugnvZPE_26_Doug	18	D	1	0	1	D	1
{name:Doug,age:26,taskver:20200410.2-blk40+inst}	Doug	26	20200410.2-blk40+inst	debugnvZPE	10	1743.59500000719	0.2	F	37	p28	0.8	D	0.2	0	debugnvZPE_26_Doug	20	F	1	0	1	D	0
{name:Doug,age:26,taskver:20200410.2-blk40+inst}	Doug	26	20200410.2-blk40+inst	debugnvZPE	11	4621.44499993883	1	R	39	p28	0.2	F	0.2	0	debugnvZPE_26_Doug	22	F	2	0	1	D	0
{name:Doug,age:26,taskver:20200410.2-blk40+inst}	Doug	26	20200410.2-blk40+inst	debugnvZPE	12	4617.39499995019	0.2	F	39	p28	0.8	D	0.8	500	debugnvZPE_26_Doug	24	D	1	0	1	D	1
{name:Doug,age:26,taskver:20200410.2-blk40+inst}	Doug	26	20200410.2-blk40+inst	debugnvZPE	13	1563.00999992527	0.8	D	37	p28	1	R	0.8	500	debugnvZPE_26_Doug	26	D	2	0	1	D	1
{name:Doug,age:26,taskver:20200410.2-blk40+inst}	Doug	26	20200410.2-blk40+inst	debugnvZPE	14	869.545000023209	0.8	D	37	p28	0.2	F	0.8	500	debugnvZPE_26_Doug	28	D	1	0	1	D	1
{name:Doug,age:26,taskver:20200410.2-blk40+inst}	Doug	26	20200410.2-blk40+inst	debugnvZPE	15	640.565000008792	0.8	D	37	p28	0.2	F	0.8	500	debugnvZPE_26_Doug	30	D	1	0	1	D	1
{name:Doug,age:26,taskver:20200410.2-blk40+inst}	Doug	26	20200410.2-blk40+inst	debugnvZPE	16	702.174999983981	0.2	F	39	p28	0.8	D	0.8	500	debugnvZPE_26_Doug	32	D	1	0	1	D	1
{name:Doug,age:26,taskver:20200410.2-blk40+inst}	Doug	26	20200410.2-blk40+inst	debugnvZPE	17	742.230000090785	0.8	D	37	p28	0.2	F	0.8	500	debugnvZPE_26_Doug	34	D	1	0	1	D	1
{name:Doug,age:26,taskver:20200410.2-blk40+inst}	Doug	26	20200410.2-blk40+inst	debugnvZPE	18	631.345000001602	0.2	F	39	p28	0.8	D	0.8	0	debugnvZPE_26_Doug	36	D	1	0	1	D	1
{name:Doug,age:26,taskver:20200410.2-blk40+inst}	Doug	26	20200410.2-blk40+inst	debugnvZPE	19	1422.49500006437	0.8	D	39	p28	0.2	F	0.2	0	debugnvZPE_26_Doug	38	F	1	0	1	D	0
{name:Doug,age:26,taskver:20200410.2-blk40+inst}	Doug	26	20200410.2-blk40+inst	debugnvZPE	20	9117.10499995388	0.8	D	37	p28	0.2	F	0.8	500	debugnvZPE_26_Doug	40	D	1	0	1	D	1
{name:Doug,age:26,taskver:20200410.2-blk40+inst}	Doug	26	20200410.2-blk40+inst	debugnvZPE	21	969.745000009425	0.2	F	39	p28	0.8	D	0.8	500	debugnvZPE_26_Doug	42	D	1	0	1	D	1
{name:Doug,age:26,taskver:20200410.2-blk40+inst}	Doug	26	20200410.2-blk40+inst	debugnvZPE	22	2128.82500002161	0.2	F	39	p28	0.8	D	0.8	500	debugnvZPE_26_Doug	44	D	1	0	1	D	1
{name:Doug,age:26,taskver:20200410.2-blk40+inst}	Doug	26	20200410.2-blk40+inst	debugnvZPE	23	1082.80500001274	0.2	F	39	p28	0.8	D	0.8	500	debugnvZPE_26_Doug	46	D	1	0	1	D	1
{name:Doug,age:26,taskver:20200410.2-blk40+inst}	Doug	26	20200410.2-blk40+inst	debugnvZPE	24	595.094999996945	0.8	D	37	p28	0.2	F	0.8	500	debugnvZPE_26_Doug	48	D	1	0	1	D	1
{name:Doug,age:26,taskver:20200410.2-blk40+inst}	Doug	26	20200410.2-blk40+inst	debugnvZPE	25	728.635000064969	0.8	D	37	p28	0.2	F	0.8	500	debugnvZPE_26_Doug	50	D	1	0	1	D	1
{name:Doug,age:26,taskver:20200410.2-blk40+inst}	Doug	26	20200410.2-blk40+inst	debugnvZPE	26	613.445000024512	0.2	F	39	p28	0.8	D	0.8	500	debugnvZPE_26_Doug	52	D	1	0	1	D	1
{name:Doug,age:26,taskver:20200410.2-blk40+inst}	Doug	26	20200410.2-blk40+inst	debugnvZPE	27	1178.79999999423	1	R	39	p28	0.8	D	0.8	500	debugnvZPE_26_Doug	54	D	2	0	1	D	1
{name:Doug,age:26,taskver:20200410.2-blk40+inst}	Doug	26	20200410.2-blk40+inst	debugnvZPE	28	2353.56999991927	0.8	D	37	p28	0.2	F	0.8	500	debugnvZPE_26_Doug	56	D	1	0	1	D	1
{name:Doug,age:26,taskver:20200410.2-blk40+inst}	Doug	26	20200410.2-blk40+inst	debugnvZPE	29	1889.3200000748	1	R	37	p28	0.2	F	1	500	debugnvZPE_26_Doug	58	R	2	1	1	D	0
{name:Doug,age:26,taskver:20200410.2-blk40+inst}	Doug	26	20200410.2-blk40+inst	debugnvZPE	30	2309.43999998271	0.8	D	37	p28	0.2	F	0.8	500	debugnvZPE_26_Doug	60	D	1	0	1	D	1
{name:Doug,age:26,taskver:20200410.2-blk40+inst}	Doug	26	20200410.2-blk40+inst	debugnvZPE	31	697.035000077449	0.8	D	37	p28	0.2	F	0.8	500	debugnvZPE_26_Doug	62	D	1	0	1	D	1
{name:Doug,age:26,taskver:20200410.2-blk40+inst}	Doug	26	20200410.2-blk40+inst	debugnvZPE	32	928.030000068247	0.8	D	37	p28	1	R	0.8	500	debugnvZPE_26_Doug	64	D	2	0	1	D	1
{name:Doug,age:26,taskver:20200410.2-blk40+inst}	Doug	26	20200410.2-blk40+inst	debugnvZPE	33	2100.17999995034	0.2	F	39	p28	0.8	D	0.8	500	debugnvZPE_26_Doug	66	D	1	0	1	D	1
{name:Doug,age:26,taskver:20200410.2-blk40+inst}	Doug	26	20200410.2-blk40+inst	debugnvZPE	34	628.854999900796	0.2	F	39	p28	0.8	D	0.8	0	debugnvZPE_26_Doug	68	D	1	0	1	D	1
{name:Doug,age:26,taskver:20200410.2-blk40+inst}	Doug	26	20200410.2-blk40+inst	debugnvZPE	35	1388.41999997385	0.2	F	37	p28	0.8	D	0.2	0	debugnvZPE_26_Doug	70	F	1	0	1	D	0
{name:Doug,age:26,taskver:20200410.2-blk40+inst}	Doug	26	20200410.2-blk40+inst	debugnvZPE	36	953.325000009499	0.2	F	39	p28	0.8	D	0.8	500	debugnvZPE_26_Doug	72	D	1	0	1	D	1
{name:Doug,age:26,taskver:20200410.2-blk40+inst}	Doug	26	20200410.2-blk40+inst	debugnvZPE	37	4587.18499995302	1	R	37	p28	0.8	D	1	500	debugnvZPE_26_Doug	74	R	2	1	1	D	0
{name:Doug,age:26,taskver:20200410.2-blk40+inst}	Doug	26	20200410.2-blk40+inst	debugnvZPE	38	3272.08500006236	0.2	F	39	p28	0.8	D	0.8	0	debugnvZPE_26_Doug	76	D	1	0	1	D	1
{name:Doug,age:26,taskver:20200410.2-blk40+inst}	Doug	26	20200410.2-blk40+inst	debugnvZPE	39	7757.97999999486	0.2	F	39	p28	1	R	1	500	debugnvZPE_26_Doug	78	R	2	1	1	D	0
{name:Doug,age:26,taskver:20200410.2-blk40+inst}	Doug	26	20200410.2-blk40+inst	debugnvZPE	40	2501.67999998666	0.8	D	37	p28	0.2	F	0.8	500	debugnvZPE_26_Doug	80	D	1	0	1	D	1
{name:Doug,age:26,taskver:20200410.2-blk40+inst}	Doug	26	20200410.2-blk40+inst	debugnvZPE	41	2793.35499997251	0.8	F	39	p82	0.2	D	0.2	0	debugnvZPE_26_Doug	82	D	1	0	2	D	1
{name:Doug,age:26,taskver:20200410.2-blk40+inst}	Doug	26	20200410.2-blk40+inst	debugnvZPE	42	10120.2300000004	0.8	F	39	p82	1	R	1	500	debugnvZPE_26_Doug	84	R	2	1	2	D	0
{name:Doug,age:26,taskver:20200410.2-blk40+inst}	Doug	26	20200410.2-blk40+inst	debugnvZPE	43	2003.73500003479	0.2	D	37	p82	0.8	F	0.2	0	debugnvZPE_26_Doug	86	D	1	0	2	D	1
{name:Doug,age:26,taskver:20200410.2-blk40+inst}	Doug	26	20200410.2-blk40+inst	debugnvZPE	44	3994.93000004441	0.8	F	37	p82	0.2	D	0.8	500	debugnvZPE_26_Doug	88	F	1	0	2	D	0
{name:Doug,age:26,taskver:20200410.2-blk40+inst}	Doug	26	20200410.2-blk40+inst	debugnvZPE	45	948.589999927208	0.8	F	37	p82	0.2	D	0.8	500	debugnvZPE_26_Doug	90	F	1	0	2	D	0
{name:Doug,age:26,taskver:20200410.2-blk40+inst}	Doug	26	20200410.2-blk40+inst	debugnvZPE	46	1811.33999989834	0.2	D	39	p82	0.8	F	0.8	500	debugnvZPE_26_Doug	92	F	1	0	2	D	0
{name:Doug,age:26,taskver:20200410.2-blk40+inst}	Doug	26	20200410.2-blk40+inst	debugnvZPE	47	1756.10500003677	0.8	F	37	p82	0.2	D	0.8	500	debugnvZPE_26_Doug	94	F	1	0	2	D	0
{name:Doug,age:26,taskver:20200410.2-blk40+inst}	Doug	26	20200410.2-blk40+inst	debugnvZPE	48	1668.78000006545	0.8	F	37	p82	0.2	D	0.8	500	debugnvZPE_26_Doug	96	F	1	0	2	D	0
{name:Doug,age:26,taskver:20200410.2-blk40+inst}	Doug	26	20200410.2-blk40+inst	debugnvZPE	49	645.295000053011	0.2	D	39	p82	0.8	F	0.8	500	debugnvZPE_26_Doug	98	F	1	0	2	D	0
{name:Doug,age:26,taskver:20200410.2-blk40+inst}	Doug	26	20200410.2-blk40+inst	debugnvZPE	50	936.894999933429	0.8	F	37	p82	0.2	D	0.8	500	debugnvZPE_26_Doug	100	F	1	0	2	D	0
{name:Doug,age:26,taskver:20200410.2-blk40+inst}	Doug	26	20200410.2-blk40+inst	debugnvZPE	51	549.204999930225	0.2	D	39	p82	0.8	F	0.8	500	debugnvZPE_26_Doug	102	F	1	0	2	D	0
{name:Doug,age:26,taskver:20200410.2-blk40+inst}	Doug	26	20200410.2-blk40+inst	debugnvZPE	52	2315.37000008393	0.2	D	39	p82	1	R	1	500	debugnvZPE_26_Doug	104	R	2	1	2	D	0
{name:Doug,age:26,taskver:20200410.2-blk40+inst}	Doug	26	20200410.2-blk40+inst	debugnvZPE	53	2056.32500001229	1	R	37	p82	0.8	F	1	500	debugnvZPE_26_Doug	106	R	2	1	2	D	0
{name:Doug,age:26,taskver:20200410.2-blk40+inst}	Doug	26	20200410.2-blk40+inst	debugnvZPE	54	1577.1399999503	1	R	37	p82	0.2	D	1	500	debugnvZPE_26_Doug	108	R	2	1	2	D	0
{name:Doug,age:26,taskver:20200410.2-blk40+inst}	Doug	26	20200410.2-blk40+inst	debugnvZPE	55	1942.21999996807	1	R	37	p82	0.8	F	1	500	debugnvZPE_26_Doug	110	R	2	1	2	D	0
{name:Doug,age:26,taskver:20200410.2-blk40+inst}	Doug	26	20200410.2-blk40+inst	debugnvZPE	56	5553.03500010632	0.8	F	37	p82	0.2	D	0.8	500	debugnvZPE_26_Doug	112	F	1	0	2	D	0
{name:Doug,age:26,taskver:20200410.2-blk40+inst}	Doug	26	20200410.2-blk40+inst	debugnvZPE	57	2443.4599999804	0.2	D	39	p82	0.8	F	0.8	500	debugnvZPE_26_Doug	114	F	1	0	2	D	0
{name:Doug,age:26,taskver:20200410.2-blk40+inst}	Doug	26	20200410.2-blk40+inst	debugnvZPE	58	1056.24499998521	0.8	F	37	p82	0.2	D	0.8	500	debugnvZPE_26_Doug	116	F	1	0	2	D	0
{name:Doug,age:26,taskver:20200410.2-blk40+inst}	Doug	26	20200410.2-blk40+inst	debugnvZPE	59	6566.49999995716	0.8	F	37	p82	0.2	D	0.8	0	debugnvZPE_26_Doug	118	F	1	0	2	D	0
{name:Doug,age:26,taskver:20200410.2-blk40+inst}	Doug	26	20200410.2-blk40+inst	debugnvZPE	60	1003.8549999008	0.8	F	39	p82	0.2	D	0.2	0	debugnvZPE_26_Doug	120	D	1	0	2	D	1
{name:Doug,age:26,taskver:20200410.2-blk40+inst}	Doug	26	20200410.2-blk40+inst	debugnvZPE	61	4813.07000003289	0.2	D	39	p82	1	R	1	500	debugnvZPE_26_Doug	122	R	2	1	2	D	0
{name:Doug,age:26,taskver:20200410.2-blk40+inst}	Doug	26	20200410.2-blk40+inst	debugnvZPE	62	3094.5350000402	0.8	F	37	p82	0.2	D	0.8	500	debugnvZPE_26_Doug	124	F	1	0	2	D	0
{name:Doug,age:26,taskver:20200410.2-blk40+inst}	Doug	26	20200410.2-blk40+inst	debugnvZPE	63	1869.23499999102	0.2	D	39	p82	0.8	F	0.8	500	debugnvZPE_26_Doug	126	F	1	0	2	D	0
{name:Doug,age:26,taskver:20200410.2-blk40+inst}	Doug	26	20200410.2-blk40+inst	debugnvZPE	64	4949.51499998569	0.2	D	37	p82	0.8	F	0.2	0	debugnvZPE_26_Doug	128	D	1	0	2	D	1
{name:Doug,age:26,taskver:20200410.2-blk40+inst}	Doug	26	20200410.2-blk40+inst	debugnvZPE	65	1448.77999997698	0.2	D	39	p82	0.8	F	0.8	500	debugnvZPE_26_Doug	130	F	1	0	2	D	0
{name:Doug,age:26,taskver:20200410.2-blk40+inst}	Doug	26	20200410.2-blk40+inst	debugnvZPE	66	694.144999957643	0.2	D	39	p82	0.8	F	0.8	500	debugnvZPE_26_Doug	132	F	1	0	2	D	0
{name:Doug,age:26,taskver:20200410.2-blk40+inst}	Doug	26	20200410.2-blk40+inst	debugnvZPE	67	1748.30999993719	0.8	F	39	p82	0.2	D	0.2	0	debugnvZPE_26_Doug	134	D	1	0	2	D	1
{name:Doug,age:26,taskver:20200410.2-blk40+inst}	Doug	26	20200410.2-blk40+inst	debugnvZPE	68	5674.37499994412	0.2	D	39	p82	0.8	F	0.8	500	debugnvZPE_26_Doug	136	F	1	0	2	D	0
{name:Doug,age:26,taskver:20200410.2-blk40+inst}	Doug	26	20200410.2-blk40+inst	debugnvZPE	69	525.22500010673	0.2	D	39	p82	0.8	F	0.8	500	debugnvZPE_26_Doug	138	F	1	0	2	D	0
{name:Doug,age:26,taskver:20200410.2-blk40+inst}	Doug	26	20200410.2-blk40+inst	debugnvZPE	70	1015.03500004765	0.8	F	37	p82	0.2	D	0.8	0	debugnvZPE_26_Doug	140	F	1	0	2	D	0
{name:Doug,age:26,taskver:20200410.2-blk40+inst}	Doug	26	20200410.2-blk40+inst	debugnvZPE	71	13779.3600000441	0.2	D	39	p82	0.8	F	0.8	500	debugnvZPE_26_Doug	142	F	1	0	2	D	0
{name:Doug,age:26,taskver:20200410.2-blk40+inst}	Doug	26	20200410.2-blk40+inst	debugnvZPE	72	790.429999935441	0.8	F	37	p82	0.2	D	0.8	500	debugnvZPE_26_Doug	144	F	1	0	2	D	0
{name:Doug,age:26,taskver:20200410.2-blk40+inst}	Doug	26	20200410.2-blk40+inst	debugnvZPE	73	594.294999958947	0.2	D	39	p82	0.8	F	0.8	500	debugnvZPE_26_Doug	146	F	1	0	2	D	0
{name:Doug,age:26,taskver:20200410.2-blk40+inst}	Doug	26	20200410.2-blk40+inst	debugnvZPE	74	954.475000035018	0.8	F	37	p82	0.2	D	0.8	500	debugnvZPE_26_Doug	148	F	1	0	2	D	0
{name:Doug,age:26,taskver:20200410.2-blk40+inst}	Doug	26	20200410.2-blk40+inst	debugnvZPE	75	898.209999897517	0.2	D	39	p82	0.8	F	0.8	500	debugnvZPE_26_Doug	150	F	1	0	2	D	0
{name:Doug,age:26,taskver:20200410.2-blk40+inst}	Doug	26	20200410.2-blk40+inst	debugnvZPE	76	571.220000041649	0.2	D	39	p82	0.8	F	0.8	500	debugnvZPE_26_Doug	152	F	1	0	2	D	0
{name:Doug,age:26,taskver:20200410.2-blk40+inst}	Doug	26	20200410.2-blk40+inst	debugnvZPE	77	626.829999964684	0.2	D	39	p82	0.8	F	0.8	0	debugnvZPE_26_Doug	154	F	1	0	2	D	0
{name:Doug,age:26,taskver:20200410.2-blk40+inst}	Doug	26	20200410.2-blk40+inst	debugnvZPE	78	2204.63000005111	0.8	F	39	p82	1	R	1	500	debugnvZPE_26_Doug	156	R	2	1	2	D	0
{name:Doug,age:26,taskver:20200410.2-blk40+inst}	Doug	26	20200410.2-blk40+inst	debugnvZPE	79	1351.30500001833	0.8	F	37	p82	0.2	D	0.8	500	debugnvZPE_26_Doug	158	F	1	0	2	D	0
{name:Doug,age:26,taskver:20200410.2-blk40+inst}	Doug	26	20200410.2-blk40+inst	debugnvZPE	80	2389.91500006523	1	R	37	p82	0.2	D	1	500	debugnvZPE_26_Doug	160	R	2	1	2	D	0
{name:Doug,age:26,taskver:20200410.2-blk40+inst}	Doug	26	20200410.2-blk40+inst	debugnvZPE	81	2981.93999996874	0.2	F	37	p28	0.8	D	0.2	500	debugnvZPE_26_Doug	162	F	1	0	3	D	0
{name:Doug,age:26,taskver:20200410.2-blk40+inst}	Doug	26	20200410.2-blk40+inst	debugnvZPE	82	1951.05999999214	1	R	37	p28	0.2	F	1	500	debugnvZPE_26_Doug	164	R	2	1	3	D	0
{name:Doug,age:26,taskver:20200410.2-blk40+inst}	Doug	26	20200410.2-blk40+inst	debugnvZPE	83	2056.32500001229	0.2	F	37	p28	0.8	D	0.2	0	debugnvZPE_26_Doug	166	F	1	0	3	D	0
{name:Doug,age:26,taskver:20200410.2-blk40+inst}	Doug	26	20200410.2-blk40+inst	debugnvZPE	84	1261.64500007872	0.8	D	39	p28	0.2	F	0.2	0	debugnvZPE_26_Doug	168	F	1	0	3	D	0
{name:Doug,age:26,taskver:20200410.2-blk40+inst}	Doug	26	20200410.2-blk40+inst	debugnvZPE	85	4298.56999998447	0.2	F	39	p28	0.8	D	0.8	500	debugnvZPE_26_Doug	170	D	1	0	3	D	1
{name:Doug,age:26,taskver:20200410.2-blk40+inst}	Doug	26	20200410.2-blk40+inst	debugnvZPE	86	615.98000000231	0.2	F	39	p28	0.8	D	0.8	500	debugnvZPE_26_Doug	172	D	1	0	3	D	1
{name:Doug,age:26,taskver:20200410.2-blk40+inst}	Doug	26	20200410.2-blk40+inst	debugnvZPE	87	635.260000010021	0.8	D	37	p28	0.2	F	0.8	500	debugnvZPE_26_Doug	174	D	1	0	3	D	1
{name:Doug,age:26,taskver:20200410.2-blk40+inst}	Doug	26	20200410.2-blk40+inst	debugnvZPE	88	572.099999990314	0.8	D	37	p28	0.2	F	0.8	500	debugnvZPE_26_Doug	176	D	1	0	3	D	1
{name:Doug,age:26,taskver:20200410.2-blk40+inst}	Doug	26	20200410.2-blk40+inst	debugnvZPE	89	1137.93500000611	1	R	37	p28	0.8	D	1	500	debugnvZPE_26_Doug	178	R	2	1	3	D	0
{name:Doug,age:26,taskver:20200410.2-blk40+inst}	Doug	26	20200410.2-blk40+inst	debugnvZPE	90	812.380000017583	0.8	D	37	p28	0.2	F	0.8	500	debugnvZPE_26_Doug	180	D	1	0	3	D	1
{name:Doug,age:26,taskver:20200410.2-blk40+inst}	Doug	26	20200410.2-blk40+inst	debugnvZPE	91	605.570000014268	0.8	D	37	p28	0.2	F	0.8	500	debugnvZPE_26_Doug	182	D	1	0	3	D	1
{name:Doug,age:26,taskver:20200410.2-blk40+inst}	Doug	26	20200410.2-blk40+inst	debugnvZPE	92	591.179999988526	0.8	D	37	p28	0.2	F	0.8	500	debugnvZPE_26_Doug	184	D	1	0	3	D	1
{name:Doug,age:26,taskver:20200410.2-blk40+inst}	Doug	26	20200410.2-blk40+inst	debugnvZPE	93	828.365000081249	0.2	F	39	p28	0.8	D	0.8	500	debugnvZPE_26_Doug	186	D	1	0	3	D	1
{name:Doug,age:26,taskver:20200410.2-blk40+inst}	Doug	26	20200410.2-blk40+inst	debugnvZPE	94	646.264999988489	0.2	F	39	p28	0.8	D	0.8	500	debugnvZPE_26_Doug	188	D	1	0	3	D	1
{name:Doug,age:26,taskver:20200410.2-blk40+inst}	Doug	26	20200410.2-blk40+inst	debugnvZPE	95	1390.4399999883	0.8	D	39	p28	1	R	1	500	debugnvZPE_26_Doug	190	R	2	1	3	D	0
{name:Doug,age:26,taskver:20200410.2-blk40+inst}	Doug	26	20200410.2-blk40+inst	debugnvZPE	96	621.299999998882	0.2	F	39	p28	0.8	D	0.8	0	debugnvZPE_26_Doug	192	D	1	0	3	D	1
{name:Doug,age:26,taskver:20200410.2-blk40+inst}	Doug	26	20200410.2-blk40+inst	debugnvZPE	97	1297.35999996774	0.8	D	39	p28	0.2	F	0.2	0	debugnvZPE_26_Doug	194	F	1	0	3	D	0
{name:Doug,age:26,taskver:20200410.2-blk40+inst}	Doug	26	20200410.2-blk40+inst	debugnvZPE	98	2267.41500000935	0.2	F	39	p28	0.8	D	0.8	500	debugnvZPE_26_Doug	196	D	1	0	3	D	1
{name:Doug,age:26,taskver:20200410.2-blk40+inst}	Doug	26	20200410.2-blk40+inst	debugnvZPE	99	494.864999898709	0.2	F	39	p28	0.8	D	0.8	500	debugnvZPE_26_Doug	198	D	1	0	3	D	1
{name:Doug,age:26,taskver:20200410.2-blk40+inst}	Doug	26	20200410.2-blk40+inst	debugnvZPE	100	779.330000048503	0.8	D	37	p28	1	R	0.8	500	debugnvZPE_26_Doug	200	D	2	0	3	D	1
{name:Doug,age:26,taskver:20200410.2-blk40+inst}	Doug	26	20200410.2-blk40+inst	debugnvZPE	101	9811.95999996271	0.8	D	37	p28	0.2	F	0.8	500	debugnvZPE_26_Doug	202	D	1	0	3	D	1
{name:Doug,age:26,taskver:20200410.2-blk40+inst}	Doug	26	20200410.2-blk40+inst	debugnvZPE	102	614.209999912418	0.2	F	39	p28	0.8	D	0.8	500	debugnvZPE_26_Doug	204	D	1	0	3	D	1
{name:Doug,age:26,taskver:20200410.2-blk40+inst}	Doug	26	20200410.2-blk40+inst	debugnvZPE	103	649.229999980889	0.2	F	39	p28	0.8	D	0.8	500	debugnvZPE_26_Doug	206	D	1	0	3	D	1
{name:Doug,age:26,taskver:20200410.2-blk40+inst}	Doug	26	20200410.2-blk40+inst	debugnvZPE	104	981.605000095442	0.8	D	37	p28	0.2	F	0.8	500	debugnvZPE_26_Doug	208	D	1	0	3	D	1
{name:Doug,age:26,taskver:20200410.2-blk40+inst}	Doug	26	20200410.2-blk40+inst	debugnvZPE	105	1042.41500003263	0.8	D	37	p28	0.2	F	0.8	500	debugnvZPE_26_Doug	210	D	1	0	3	D	1
{name:Doug,age:26,taskver:20200410.2-blk40+inst}	Doug	26	20200410.2-blk40+inst	debugnvZPE	106	525.055000092834	0.2	F	39	p28	0.8	D	0.8	500	debugnvZPE_26_Doug	212	D	1	0	3	D	1
{name:Doug,age:26,taskver:20200410.2-blk40+inst}	Doug	26	20200410.2-blk40+inst	debugnvZPE	107	735.074999975041	0.8	D	37	p28	0.2	F	0.8	500	debugnvZPE_26_Doug	214	D	1	0	3	D	1
{name:Doug,age:26,taskver:20200410.2-blk40+inst}	Doug	26	20200410.2-blk40+inst	debugnvZPE	108	1993.52500005625	1	R	39	p28	0.8	D	0.8	500	debugnvZPE_26_Doug	216	D	2	0	3	D	1
{name:Doug,age:26,taskver:20200410.2-blk40+inst}	Doug	26	20200410.2-blk40+inst	debugnvZPE	109	2604.17000006419	0.8	D	37	p28	0.2	F	0.8	500	debugnvZPE_26_Doug	218	D	1	0	3	D	1
{name:Doug,age:26,taskver:20200410.2-blk40+inst}	Doug	26	20200410.2-blk40+inst	debugnvZPE	110	1325.04000002518	1	R	39	p28	0.2	F	0.2	0	debugnvZPE_26_Doug	220	F	2	0	3	D	0
{name:Doug,age:26,taskver:20200410.2-blk40+inst}	Doug	26	20200410.2-blk40+inst	debugnvZPE	111	1118.09000000358	0.2	F	39	p28	0.8	D	0.8	0	debugnvZPE_26_Doug	222	D	1	0	3	D	1
{name:Doug,age:26,taskver:20200410.2-blk40+inst}	Doug	26	20200410.2-blk40+inst	debugnvZPE	112	947.784999967553	0.2	F	37	p28	0.8	D	0.2	0	debugnvZPE_26_Doug	224	F	1	0	3	D	0
{name:Doug,age:26,taskver:20200410.2-blk40+inst}	Doug	26	20200410.2-blk40+inst	debugnvZPE	113	1351.10500000883	0.8	D	37	p28	0.2	F	0.8	0	debugnvZPE_26_Doug	226	D	1	0	3	D	1
{name:Doug,age:26,taskver:20200410.2-blk40+inst}	Doug	26	20200410.2-blk40+inst	debugnvZPE	114	2956.2750000041	0.2	F	39	p28	0.8	D	0.8	0	debugnvZPE_26_Doug	228	D	1	0	3	D	1
{name:Doug,age:26,taskver:20200410.2-blk40+inst}	Doug	26	20200410.2-blk40+inst	debugnvZPE	115	612.184999976307	0.2	F	37	p28	1	R	0.2	0	debugnvZPE_26_Doug	230	F	2	0	3	D	0
{name:Doug,age:26,taskver:20200410.2-blk40+inst}	Doug	26	20200410.2-blk40+inst	debugnvZPE	116	2987.97499993816	0.8	D	37	p28	0.2	F	0.8	500	debugnvZPE_26_Doug	232	D	1	0	3	D	1
{name:Doug,age:26,taskver:20200410.2-blk40+inst}	Doug	26	20200410.2-blk40+inst	debugnvZPE	117	555.799999972805	0.8	D	37	p28	0.2	F	0.8	0	debugnvZPE_26_Doug	234	D	1	0	3	D	1
{name:Doug,age:26,taskver:20200410.2-blk40+inst}	Doug	26	20200410.2-blk40+inst	debugnvZPE	118	1308.12499998137	0.8	D	39	p28	0.2	F	0.2	0	debugnvZPE_26_Doug	236	F	1	0	3	D	0
{name:Doug,age:26,taskver:20200410.2-blk40+inst}	Doug	26	20200410.2-blk40+inst	debugnvZPE	119	1800.19500001799	0.2	F	37	p28	0.8	D	0.2	0	debugnvZPE_26_Doug	238	F	1	0	3	D	0
{name:Doug,age:26,taskver:20200410.2-blk40+inst}	Doug	26	20200410.2-blk40+inst	debugnvZPE	120	2137.59499997832	0.2	F	39	p28	1	R	1	500	debugnvZPE_26_Doug	240	R	2	1	3	D	0
{name:Doug,age:26,taskver:20200410.2-blk40+inst}	Doug	26	20200410.2-blk40+inst	debugnvZPE	121	1215.05500003695	0.2	D	39	p82	0.8	F	0.8	500	debugnvZPE_26_Doug	242	F	1	0	4	D	0
{name:Doug,age:26,taskver:20200410.2-blk40+inst}	Doug	26	20200410.2-blk40+inst	debugnvZPE	122	603.16000005696	0.2	D	39	p82	0.8	F	0.8	500	debugnvZPE_26_Doug	244	F	1	0	4	D	0
{name:Doug,age:26,taskver:20200410.2-blk40+inst}	Doug	26	20200410.2-blk40+inst	debugnvZPE	123	491.199999931268	0.2	D	39	p82	0.8	F	0.8	500	debugnvZPE_26_Doug	246	F	1	0	4	D	0
{name:Doug,age:26,taskver:20200410.2-blk40+inst}	Doug	26	20200410.2-blk40+inst	debugnvZPE	124	482.004999998026	0.2	D	39	p82	0.8	F	0.8	500	debugnvZPE_26_Doug	248	F	1	0	4	D	0
{name:Doug,age:26,taskver:20200410.2-blk40+inst}	Doug	26	20200410.2-blk40+inst	debugnvZPE	125	722.064999979921	0.8	F	37	p82	0.2	D	0.8	500	debugnvZPE_26_Doug	250	F	1	0	4	D	0
{name:Doug,age:26,taskver:20200410.2-blk40+inst}	Doug	26	20200410.2-blk40+inst	debugnvZPE	126	800.755000091158	0.8	F	37	p82	0.2	D	0.8	0	debugnvZPE_26_Doug	252	F	1	0	4	D	0
{name:Doug,age:26,taskver:20200410.2-blk40+inst}	Doug	26	20200410.2-blk40+inst	debugnvZPE	127	2231.8100000266	0.8	F	37	p82	0.2	D	0.8	500	debugnvZPE_26_Doug	254	F	1	0	4	D	0
{name:Doug,age:26,taskver:20200410.2-blk40+inst}	Doug	26	20200410.2-blk40+inst	debugnvZPE	128	4651.08500001952	0.2	D	39	p82	1	R	1	500	debugnvZPE_26_Doug	256	R	2	1	4	D	0
{name:Doug,age:26,taskver:20200410.2-blk40+inst}	Doug	26	20200410.2-blk40+inst	debugnvZPE	129	1591.29999997094	0.8	F	37	p82	0.2	D	0.8	500	debugnvZPE_26_Doug	258	F	1	0	4	D	0
{name:Doug,age:26,taskver:20200410.2-blk40+inst}	Doug	26	20200410.2-blk40+inst	debugnvZPE	130	679.525000043213	0.2	D	39	p82	0.8	F	0.8	500	debugnvZPE_26_Doug	260	F	1	0	4	D	0
{name:Doug,age:26,taskver:20200410.2-blk40+inst}	Doug	26	20200410.2-blk40+inst	debugnvZPE	131	579.874999937601	0.8	F	37	p82	0.2	D	0.8	500	debugnvZPE_26_Doug	262	F	1	0	4	D	0
{name:Doug,age:26,taskver:20200410.2-blk40+inst}	Doug	26	20200410.2-blk40+inst	debugnvZPE	132	530.105000012554	0.8	F	37	p82	0.2	D	0.8	500	debugnvZPE_26_Doug	264	F	1	0	4	D	0
{name:Doug,age:26,taskver:20200410.2-blk40+inst}	Doug	26	20200410.2-blk40+inst	debugnvZPE	133	858.509999932721	0.2	D	39	p82	0.8	F	0.8	500	debugnvZPE_26_Doug	266	F	1	0	4	D	0
{name:Doug,age:26,taskver:20200410.2-blk40+inst}	Doug	26	20200410.2-blk40+inst	debugnvZPE	134	1383.72499996331	0.8	F	37	p82	1	R	0.8	500	debugnvZPE_26_Doug	268	F	2	0	4	D	0
{name:Doug,age:26,taskver:20200410.2-blk40+inst}	Doug	26	20200410.2-blk40+inst	debugnvZPE	135	676.170000107959	0.2	D	39	p82	0.8	F	0.8	500	debugnvZPE_26_Doug	270	F	1	0	4	D	0
{name:Doug,age:26,taskver:20200410.2-blk40+inst}	Doug	26	20200410.2-blk40+inst	debugnvZPE	136	575.554999988526	0.2	D	39	p82	0.8	F	0.8	500	debugnvZPE_26_Doug	272	F	1	0	4	D	0
{name:Doug,age:26,taskver:20200410.2-blk40+inst}	Doug	26	20200410.2-blk40+inst	debugnvZPE	137	664.224999956787	0.2	D	39	p82	0.8	F	0.8	0	debugnvZPE_26_Doug	274	F	1	0	4	D	0
{name:Doug,age:26,taskver:20200410.2-blk40+inst}	Doug	26	20200410.2-blk40+inst	debugnvZPE	138	1242.12499998976	0.8	F	37	p82	0.2	D	0.8	500	debugnvZPE_26_Doug	276	F	1	0	4	D	0
{name:Doug,age:26,taskver:20200410.2-blk40+inst}	Doug	26	20200410.2-blk40+inst	debugnvZPE	139	1429.8500000732	0.8	F	37	p82	0.2	D	0.8	500	debugnvZPE_26_Doug	278	F	1	0	4	D	0
{name:Doug,age:26,taskver:20200410.2-blk40+inst}	Doug	26	20200410.2-blk40+inst	debugnvZPE	140	1472.82000002451	0.8	F	37	p82	1	R	0.8	500	debugnvZPE_26_Doug	280	F	2	0	4	D	0
{name:Doug,age:26,taskver:20200410.2-blk40+inst}	Doug	26	20200410.2-blk40+inst	debugnvZPE	141	1244.19500003569	1	R	39	p82	0.8	F	0.8	500	debugnvZPE_26_Doug	282	F	2	0	4	D	0
{name:Doug,age:26,taskver:20200410.2-blk40+inst}	Doug	26	20200410.2-blk40+inst	debugnvZPE	142	715.595000074245	0.8	F	37	p82	0.2	D	0.8	500	debugnvZPE_26_Doug	284	F	1	0	4	D	0
{name:Doug,age:26,taskver:20200410.2-blk40+inst}	Doug	26	20200410.2-blk40+inst	debugnvZPE	143	749.889999977313	0.2	D	39	p82	0.8	F	0.8	500	debugnvZPE_26_Doug	286	F	1	0	4	D	0
{name:Doug,age:26,taskver:20200410.2-blk40+inst}	Doug	26	20200410.2-blk40+inst	debugnvZPE	144	1171.63500003517	0.2	D	39	p82	0.8	F	0.8	500	debugnvZPE_26_Doug	288	F	1	0	4	D	0
{name:Doug,age:26,taskver:20200410.2-blk40+inst}	Doug	26	20200410.2-blk40+inst	debugnvZPE	145	2550.77500001062	1	R	37	p82	0.2	D	1	500	debugnvZPE_26_Doug	290	R	2	1	4	D	0
{name:Doug,age:26,taskver:20200410.2-blk40+inst}	Doug	26	20200410.2-blk40+inst	debugnvZPE	146	908.400000073016	0.8	F	37	p82	0.2	D	0.8	500	debugnvZPE_26_Doug	292	F	1	0	4	D	0
{name:Doug,age:26,taskver:20200410.2-blk40+inst}	Doug	26	20200410.2-blk40+inst	debugnvZPE	147	1891.60500001162	0.2	D	39	p82	0.8	F	0.8	500	debugnvZPE_26_Doug	294	F	1	0	4	D	0
{name:Doug,age:26,taskver:20200410.2-blk40+inst}	Doug	26	20200410.2-blk40+inst	debugnvZPE	148	1700.1750000054	1	R	37	p82	0.2	D	1	500	debugnvZPE_26_Doug	296	R	2	1	4	D	0
{name:Doug,age:26,taskver:20200410.2-blk40+inst}	Doug	26	20200410.2-blk40+inst	debugnvZPE	149	1565.31500001438	0.8	F	37	p82	0.2	D	0.8	0	debugnvZPE_26_Doug	298	F	1	0	4	D	0
{name:Doug,age:26,taskver:20200410.2-blk40+inst}	Doug	26	20200410.2-blk40+inst	debugnvZPE	150	685.140000074171	0.2	D	39	p82	0.8	F	0.8	500	debugnvZPE_26_Doug	300	F	1	0	4	D	0
{name:Doug,age:26,taskver:20200410.2-blk40+inst}	Doug	26	20200410.2-blk40+inst	debugnvZPE	151	1161.47000005003	0.2	D	39	p82	1	R	1	500	debugnvZPE_26_Doug	302	R	2	1	4	D	0
{name:Doug,age:26,taskver:20200410.2-blk40+inst}	Doug	26	20200410.2-blk40+inst	debugnvZPE	152	1234.39500003587	0.8	F	37	p82	0.2	D	0.8	500	debugnvZPE_26_Doug	304	F	1	0	4	D	0
{name:Doug,age:26,taskver:20200410.2-blk40+inst}	Doug	26	20200410.2-blk40+inst	debugnvZPE	153	575.249999994412	0.2	D	39	p82	0.8	F	0.8	0	debugnvZPE_26_Doug	306	F	1	0	4	D	0
{name:Doug,age:26,taskver:20200410.2-blk40+inst}	Doug	26	20200410.2-blk40+inst	debugnvZPE	154	1305.58000004385	0.8	F	37	p82	0.2	D	0.8	500	debugnvZPE_26_Doug	308	F	1	0	4	D	0
{name:Doug,age:26,taskver:20200410.2-blk40+inst}	Doug	26	20200410.2-blk40+inst	debugnvZPE	155	474.564999924041	0.8	F	37	p82	0.2	D	0.8	500	debugnvZPE_26_Doug	310	F	1	0	4	D	0
{name:Doug,age:26,taskver:20200410.2-blk40+inst}	Doug	26	20200410.2-blk40+inst	debugnvZPE	156	509.059999953024	0.8	F	37	p82	0.2	D	0.8	500	debugnvZPE_26_Doug	312	F	1	0	4	D	0
{name:Doug,age:26,taskver:20200410.2-blk40+inst}	Doug	26	20200410.2-blk40+inst	debugnvZPE	157	622.164999949746	0.8	F	37	p82	0.2	D	0.8	500	debugnvZPE_26_Doug	314	F	1	0	4	D	0
{name:Doug,age:26,taskver:20200410.2-blk40+inst}	Doug	26	20200410.2-blk40+inst	debugnvZPE	158	1625.83999999333	1	R	39	p82	0.8	F	0.8	500	debugnvZPE_26_Doug	316	F	2	0	4	D	0
{name:Doug,age:26,taskver:20200410.2-blk40+inst}	Doug	26	20200410.2-blk40+inst	debugnvZPE	159	835.994999972172	0.2	D	39	p82	0.8	F	0.8	500	debugnvZPE_26_Doug	318	F	1	0	4	D	0
{name:Doug,age:26,taskver:20200410.2-blk40+inst}	Doug	26	20200410.2-blk40+inst	debugnvZPE	160	538.475000066683	0.2	D	39	p82	0.8	F	0.8	500	debugnvZPE_26_Doug	320	F	1	0	4	D	0
{name:Doug,age:26,taskver:20200410.2-blk40+inst}	Doug	26	20200410.2-blk40+inst	debugnvZPE	161	1405.58500005864	1	F	37	p11	1	D	1	500	debugnvZPE_26_Doug	322	F	1	0	5	D	0
{name:Doug,age:26,taskver:20200410.2-blk40+inst}	Doug	26	20200410.2-blk40+inst	debugnvZPE	162	532.134999986738	1	F	37	p11	1	D	1	500	debugnvZPE_26_Doug	324	F	1	0	5	D	0
{name:Doug,age:26,taskver:20200410.2-blk40+inst}	Doug	26	20200410.2-blk40+inst	debugnvZPE	163	692.494999966584	1	D	39	p11	1	F	1	500	debugnvZPE_26_Doug	326	F	1	0	5	D	0
{name:Doug,age:26,taskver:20200410.2-blk40+inst}	Doug	26	20200410.2-blk40+inst	debugnvZPE	164	731.084999977611	1	D	39	p11	1	F	1	500	debugnvZPE_26_Doug	328	F	1	0	5	D	0
{name:Doug,age:26,taskver:20200410.2-blk40+inst}	Doug	26	20200410.2-blk40+inst	debugnvZPE	165	862.319999956526	1	F	37	p11	1	D	1	500	debugnvZPE_26_Doug	330	F	1	0	5	D	0
{name:Doug,age:26,taskver:20200410.2-blk40+inst}	Doug	26	20200410.2-blk40+inst	debugnvZPE	166	555.494999978691	1	F	37	p11	1	D	1	500	debugnvZPE_26_Doug	332	F	1	0	5	D	0
{name:Doug,age:26,taskver:20200410.2-blk40+inst}	Doug	26	20200410.2-blk40+inst	debugnvZPE	167	1763.02499999292	1	D	39	p11	1	F	1	500	debugnvZPE_26_Doug	334	F	1	0	5	D	0
{name:Doug,age:26,taskver:20200410.2-blk40+inst}	Doug	26	20200410.2-blk40+inst	debugnvZPE	168	947.235000086948	1	D	39	p11	1	F	1	500	debugnvZPE_26_Doug	336	F	1	0	5	D	0
{name:Doug,age:26,taskver:20200410.2-blk40+inst}	Doug	26	20200410.2-blk40+inst	debugnvZPE	169	645.859999931417	1	D	39	p11	1	F	1	500	debugnvZPE_26_Doug	338	F	1	0	5	D	0
{name:Doug,age:26,taskver:20200410.2-blk40+inst}	Doug	26	20200410.2-blk40+inst	debugnvZPE	170	744.640000048093	1	F	37	p11	1	D	1	500	debugnvZPE_26_Doug	340	F	1	0	5	D	0
{name:Doug,age:26,taskver:20200410.2-blk40+inst}	Doug	26	20200410.2-blk40+inst	debugnvZPE	171	474.200000055134	1	F	37	p11	1	D	1	500	debugnvZPE_26_Doug	342	F	1	0	5	D	0
{name:Doug,age:26,taskver:20200410.2-blk40+inst}	Doug	26	20200410.2-blk40+inst	debugnvZPE	172	1187.19500000589	1	R	39	p11	1	F	1	500	debugnvZPE_26_Doug	344	F	2	0	5	D	0
{name:Doug,age:26,taskver:20200410.2-blk40+inst}	Doug	26	20200410.2-blk40+inst	debugnvZPE	173	661.975000053644	1	F	37	p11	1	D	1	500	debugnvZPE_26_Doug	346	F	1	0	5	D	0
{name:Doug,age:26,taskver:20200410.2-blk40+inst}	Doug	26	20200410.2-blk40+inst	debugnvZPE	174	621.869999915361	1	D	39	p11	1	F	1	500	debugnvZPE_26_Doug	348	F	1	0	5	D	0
{name:Doug,age:26,taskver:20200410.2-blk40+inst}	Doug	26	20200410.2-blk40+inst	debugnvZPE	175	2575.01500006765	1	D	39	p11	1	F	1	500	debugnvZPE_26_Doug	350	F	1	0	5	D	0
{name:Doug,age:26,taskver:20200410.2-blk40+inst}	Doug	26	20200410.2-blk40+inst	debugnvZPE	176	521.150000044145	1	D	39	p11	1	F	1	500	debugnvZPE_26_Doug	352	F	1	0	5	D	0
{name:Doug,age:26,taskver:20200410.2-blk40+inst}	Doug	26	20200410.2-blk40+inst	debugnvZPE	177	498.039999976754	1	D	39	p11	1	F	1	500	debugnvZPE_26_Doug	354	F	1	0	5	D	0
{name:Doug,age:26,taskver:20200410.2-blk40+inst}	Doug	26	20200410.2-blk40+inst	debugnvZPE	178	651.700000045821	1	F	37	p11	1	D	1	500	debugnvZPE_26_Doug	356	F	1	0	5	D	0
{name:Doug,age:26,taskver:20200410.2-blk40+inst}	Doug	26	20200410.2-blk40+inst	debugnvZPE	179	563.300000037998	1	F	37	p11	1	D	1	500	debugnvZPE_26_Doug	358	F	1	0	5	D	0
{name:Doug,age:26,taskver:20200410.2-blk40+inst}	Doug	26	20200410.2-blk40+inst	debugnvZPE	180	460.740000009537	1	F	37	p11	1	D	1	500	debugnvZPE_26_Doug	360	F	1	0	5	D	0
{name:Doug,age:26,taskver:20200410.2-blk40+inst}	Doug	26	20200410.2-blk40+inst	debugnvZPE	181	459.234999958426	1	F	37	p11	1	D	1	500	debugnvZPE_26_Doug	362	F	1	0	5	D	0
{name:Doug,age:26,taskver:20200410.2-blk40+inst}	Doug	26	20200410.2-blk40+inst	debugnvZPE	182	948.285000049509	1	D	39	p11	1	R	1	500	debugnvZPE_26_Doug	364	R	2	1	5	D	0
{name:Doug,age:26,taskver:20200410.2-blk40+inst}	Doug	26	20200410.2-blk40+inst	debugnvZPE	183	612.134999944828	1	D	39	p11	1	F	1	500	debugnvZPE_26_Doug	366	F	1	0	5	D	0
{name:Doug,age:26,taskver:20200410.2-blk40+inst}	Doug	26	20200410.2-blk40+inst	debugnvZPE	184	487.040000036359	1	D	39	p11	1	F	1	500	debugnvZPE_26_Doug	368	F	1	0	5	D	0
{name:Doug,age:26,taskver:20200410.2-blk40+inst}	Doug	26	20200410.2-blk40+inst	debugnvZPE	185	485.150000080466	1	D	39	p11	1	F	1	500	debugnvZPE_26_Doug	370	F	1	0	5	D	0
{name:Doug,age:26,taskver:20200410.2-blk40+inst}	Doug	26	20200410.2-blk40+inst	debugnvZPE	186	489.270000020042	1	D	39	p11	1	F	1	500	debugnvZPE_26_Doug	372	F	1	0	5	D	0
{name:Doug,age:26,taskver:20200410.2-blk40+inst}	Doug	26	20200410.2-blk40+inst	debugnvZPE	187	526.435000007041	1	D	39	p11	1	F	1	500	debugnvZPE_26_Doug	374	F	1	0	5	D	0
{name:Doug,age:26,taskver:20200410.2-blk40+inst}	Doug	26	20200410.2-blk40+inst	debugnvZPE	188	471.17499995511	1	D	39	p11	1	F	1	500	debugnvZPE_26_Doug	376	F	1	0	5	D	0
{name:Doug,age:26,taskver:20200410.2-blk40+inst}	Doug	26	20200410.2-blk40+inst	debugnvZPE	189	802.960000000894	1	F	37	p11	1	D	1	500	debugnvZPE_26_Doug	378	F	1	0	5	D	0
{name:Doug,age:26,taskver:20200410.2-blk40+inst}	Doug	26	20200410.2-blk40+inst	debugnvZPE	190	573.094999999739	1	D	39	p11	1	F	1	500	debugnvZPE_26_Doug	380	F	1	0	5	D	0
{name:Doug,age:26,taskver:20200410.2-blk40+inst}	Doug	26	20200410.2-blk40+inst	debugnvZPE	191	916.975000058301	1	R	37	p11	1	D	1	500	debugnvZPE_26_Doug	382	R	2	1	5	D	0
{name:Doug,age:26,taskver:20200410.2-blk40+inst}	Doug	26	20200410.2-blk40+inst	debugnvZPE	192	581.98999997694	1	F	37	p11	1	D	1	500	debugnvZPE_26_Doug	384	F	1	0	5	D	0
{name:Doug,age:26,taskver:20200410.2-blk40+inst}	Doug	26	20200410.2-blk40+inst	debugnvZPE	193	1107.28500003461	1	D	39	p11	1	R	1	500	debugnvZPE_26_Doug	386	R	2	1	5	D	0
{name:Doug,age:26,taskver:20200410.2-blk40+inst}	Doug	26	20200410.2-blk40+inst	debugnvZPE	194	1123.34499997087	1	D	39	p11	1	F	1	500	debugnvZPE_26_Doug	388	F	1	0	5	D	0
{name:Doug,age:26,taskver:20200410.2-blk40+inst}	Doug	26	20200410.2-blk40+inst	debugnvZPE	195	2043.15499996301	1	F	37	p11	1	D	1	500	debugnvZPE_26_Doug	390	F	1	0	5	D	0
{name:Doug,age:26,taskver:20200410.2-blk40+inst}	Doug	26	20200410.2-blk40+inst	debugnvZPE	196	612.199999974109	1	F	37	p11	1	D	1	500	debugnvZPE_26_Doug	392	F	1	0	5	D	0
{name:Doug,age:26,taskver:20200410.2-blk40+inst}	Doug	26	20200410.2-blk40+inst	debugnvZPE	197	843.935000011697	1	D	39	p11	1	F	1	500	debugnvZPE_26_Doug	394	F	1	0	5	D	0
{name:Doug,age:26,taskver:20200410.2-blk40+inst}	Doug	26	20200410.2-blk40+inst	debugnvZPE	198	659.269999945536	1	D	39	p11	1	F	1	500	debugnvZPE_26_Doug	396	F	1	0	5	D	0
{name:Doug,age:26,taskver:20200410.2-blk40+inst}	Doug	26	20200410.2-blk40+inst	debugnvZPE	199	827.840000041761	1	D	39	p11	1	F	1	500	debugnvZPE_26_Doug	398	F	1	0	5	D	0
{name:Doug,age:26,taskver:20200410.2-blk40+inst}	Doug	26	20200410.2-blk40+inst	debugnvZPE	200	4427.24500002805	1	D	39	p11	1	R	1	500	debugnvZPE_26_Doug	400	R	2	1	5	D	0
{name:Doug,age:26,taskver:20200410.2-blk40+inst}	Doug	26	20200410.2-blk40+inst	debugnvZPE	201	764.045000076294	1	F	39	p11	1	R	1	500	debugnvZPE_26_Doug	402	R	2	1	5	D	0
{name:Doug,age:26,taskver:20200410.2-blk40+inst}	Doug	26	20200410.2-blk40+inst	debugnvZPE	202	4259.82500007376	1	F	37	p11	1	D	1	500	debugnvZPE_26_Doug	404	F	1	0	5	D	0
{name:Doug,age:26,taskver:20200410.2-blk40+inst}	Doug	26	20200410.2-blk40+inst	debugnvZPE	203	4381.34999992326	1	F	37	p11	1	R	1	500	debugnvZPE_26_Doug	406	F	2	0	5	D	0
{name:Doug,age:26,taskver:20200410.2-blk40+inst}	Doug	26	20200410.2-blk40+inst	debugnvZPE	204	737.865000031888	1	D	39	p11	1	F	1	500	debugnvZPE_26_Doug	408	F	1	0	5	D	0
{name:Doug,age:26,taskver:20200410.2-blk40+inst}	Doug	26	20200410.2-blk40+inst	debugnvZPE	205	541.035000002012	1	F	37	p11	1	D	1	500	debugnvZPE_26_Doug	410	F	1	0	5	D	0
{name:Doug,age:26,taskver:20200410.2-blk40+inst}	Doug	26	20200410.2-blk40+inst	debugnvZPE	206	2578.17999995314	1	F	37	p11	1	D	1	500	debugnvZPE_26_Doug	412	F	1	0	5	D	0
{name:Doug,age:26,taskver:20200410.2-blk40+inst}	Doug	26	20200410.2-blk40+inst	debugnvZPE	207	1382.1750000352	1	F	37	p11	1	D	1	500	debugnvZPE_26_Doug	414	F	1	0	5	D	0
{name:Doug,age:26,taskver:20200410.2-blk40+inst}	Doug	26	20200410.2-blk40+inst	debugnvZPE	208	833.245000103489	1	D	39	p11	1	F	1	500	debugnvZPE_26_Doug	416	F	1	0	5	D	0
{name:Doug,age:26,taskver:20200410.2-blk40+inst}	Doug	26	20200410.2-blk40+inst	debugnvZPE	209	588.225000072271	1	D	39	p11	1	F	1	500	debugnvZPE_26_Doug	418	F	1	0	5	D	0
{name:Doug,age:26,taskver:20200410.2-blk40+inst}	Doug	26	20200410.2-blk40+inst	debugnvZPE	210	603.559999959543	1	F	37	p11	1	D	1	500	debugnvZPE_26_Doug	420	F	1	0	5	D	0
{name:Doug,age:26,taskver:20200410.2-blk40+inst}	Doug	26	20200410.2-blk40+inst	debugnvZPE	211	634.515000041574	1	D	39	p11	1	F	1	500	debugnvZPE_26_Doug	422	F	1	0	5	D	0
{name:Doug,age:26,taskver:20200410.2-blk40+inst}	Doug	26	20200410.2-blk40+inst	debugnvZPE	212	517.045000102371	1	D	39	p11	1	F	1	500	debugnvZPE_26_Doug	424	F	1	0	5	D	0
{name:Doug,age:26,taskver:20200410.2-blk40+inst}	Doug	26	20200410.2-blk40+inst	debugnvZPE	213	1995.45499996748	1	F	37	p11	1	R	1	500	debugnvZPE_26_Doug	426	F	2	0	5	D	0
{name:Doug,age:26,taskver:20200410.2-blk40+inst}	Doug	26	20200410.2-blk40+inst	debugnvZPE	214	1097.68500004429	1	F	37	p11	1	D	1	500	debugnvZPE_26_Doug	428	F	1	0	5	D	0
{name:Doug,age:26,taskver:20200410.2-blk40+inst}	Doug	26	20200410.2-blk40+inst	debugnvZPE	215	1037.84999996424	1	F	37	p11	1	D	1	500	debugnvZPE_26_Doug	430	F	1	0	5	D	0
{name:Doug,age:26,taskver:20200410.2-blk40+inst}	Doug	26	20200410.2-blk40+inst	debugnvZPE	216	578.409999958239	1	F	37	p11	1	D	1	500	debugnvZPE_26_Doug	432	F	1	0	5	D	0
{name:Doug,age:26,taskver:20200410.2-blk40+inst}	Doug	26	20200410.2-blk40+inst	debugnvZPE	217	993.099999963306	1	D	39	p11	1	F	1	500	debugnvZPE_26_Doug	434	F	1	0	5	D	0
{name:Doug,age:26,taskver:20200410.2-blk40+inst}	Doug	26	20200410.2-blk40+inst	debugnvZPE	218	1446.69999997132	1	R	39	p11	1	F	1	500	debugnvZPE_26_Doug	436	F	2	0	5	D	0
{name:Doug,age:26,taskver:20200410.2-blk40+inst}	Doug	26	20200410.2-blk40+inst	debugnvZPE	219	632.204999914393	1	D	39	p11	1	F	1	500	debugnvZPE_26_Doug	438	F	1	0	5	D	0
{name:Doug,age:26,taskver:20200410.2-blk40+inst}	Doug	26	20200410.2-blk40+inst	debugnvZPE	220	703.130000038072	1	R	39	p11	1	F	1	500	debugnvZPE_26_Doug	440	F	2	0	5	D	0
{name:Doug,age:26,taskver:20200410.2-blk40+inst}	Doug	26	20200410.2-blk40+inst	debugnvZPE	221	520.164999994449	1	D	39	p11	1	F	1	500	debugnvZPE_26_Doug	442	F	1	0	5	D	0
{name:Doug,age:26,taskver:20200410.2-blk40+inst}	Doug	26	20200410.2-blk40+inst	debugnvZPE	222	1295.44000001624	1	R	37	p11	1	D	1	500	debugnvZPE_26_Doug	444	R	2	1	5	D	0
{name:Doug,age:26,taskver:20200410.2-blk40+inst}	Doug	26	20200410.2-blk40+inst	debugnvZPE	223	2867.77499993332	1	F	37	p11	1	D	1	500	debugnvZPE_26_Doug	446	F	1	0	5	D	0
{name:Doug,age:26,taskver:20200410.2-blk40+inst}	Doug	26	20200410.2-blk40+inst	debugnvZPE	224	756.034999969415	1	D	39	p11	1	F	1	500	debugnvZPE_26_Doug	448	F	1	0	5	D	0
{name:Doug,age:26,taskver:20200410.2-blk40+inst}	Doug	26	20200410.2-blk40+inst	debugnvZPE	225	1570.38000004832	1	F	37	p11	1	D	1	500	debugnvZPE_26_Doug	450	F	1	0	5	D	0
{name:Doug,age:26,taskver:20200410.2-blk40+inst}	Doug	26	20200410.2-blk40+inst	debugnvZPE	226	581.135000102222	1	F	37	p11	1	D	1	500	debugnvZPE_26_Doug	452	F	1	0	5	D	0
{name:Doug,age:26,taskver:20200410.2-blk40+inst}	Doug	26	20200410.2-blk40+inst	debugnvZPE	227	537.219999940135	1	F	37	p11	1	D	1	500	debugnvZPE_26_Doug	454	F	1	0	5	D	0
{name:Doug,age:26,taskver:20200410.2-blk40+inst}	Doug	26	20200410.2-blk40+inst	debugnvZPE	228	476.074999896809	1	F	37	p11	1	D	1	500	debugnvZPE_26_Doug	456	F	1	0	5	D	0
{name:Doug,age:26,taskver:20200410.2-blk40+inst}	Doug	26	20200410.2-blk40+inst	debugnvZPE	229	1325.14999993145	1	R	37	p11	1	D	1	500	debugnvZPE_26_Doug	458	R	2	1	5	D	0
{name:Doug,age:26,taskver:20200410.2-blk40+inst}	Doug	26	20200410.2-blk40+inst	debugnvZPE	230	644.13999998942	1	D	39	p11	1	F	1	500	debugnvZPE_26_Doug	460	F	1	0	5	D	0
{name:Doug,age:26,taskver:20200410.2-blk40+inst}	Doug	26	20200410.2-blk40+inst	debugnvZPE	231	811.359999934211	1	D	39	p11	1	F	1	500	debugnvZPE_26_Doug	462	F	1	0	5	D	0
{name:Doug,age:26,taskver:20200410.2-blk40+inst}	Doug	26	20200410.2-blk40+inst	debugnvZPE	232	1086.65499999188	1	D	39	p11	1	R	1	500	debugnvZPE_26_Doug	464	R	2	1	5	D	0
{name:Doug,age:26,taskver:20200410.2-blk40+inst}	Doug	26	20200410.2-blk40+inst	debugnvZPE	233	780.264999950305	1	F	37	p11	1	D	1	500	debugnvZPE_26_Doug	466	F	1	0	5	D	0
{name:Doug,age:26,taskver:20200410.2-blk40+inst}	Doug	26	20200410.2-blk40+inst	debugnvZPE	234	2430.65999995451	1	R	37	p11	1	D	1	500	debugnvZPE_26_Doug	468	R	2	1	5	D	0
{name:Doug,age:26,taskver:20200410.2-blk40+inst}	Doug	26	20200410.2-blk40+inst	debugnvZPE	235	798.309999983758	1	R	39	p11	1	F	1	500	debugnvZPE_26_Doug	470	F	2	0	5	D	0
{name:Doug,age:26,taskver:20200410.2-blk40+inst}	Doug	26	20200410.2-blk40+inst	debugnvZPE	236	786.119999946095	1	F	37	p11	1	D	1	500	debugnvZPE_26_Doug	472	F	1	0	5	D	0
{name:Doug,age:26,taskver:20200410.2-blk40+inst}	Doug	26	20200410.2-blk40+inst	debugnvZPE	237	635.005000047386	1	F	37	p11	1	D	1	500	debugnvZPE_26_Doug	474	F	1	0	5	D	0
{name:Doug,age:26,taskver:20200410.2-blk40+inst}	Doug	26	20200410.2-blk40+inst	debugnvZPE	238	1511.59500004724	1	F	37	p11	1	R	1	500	debugnvZPE_26_Doug	476	F	2	0	5	D	0
{name:Doug,age:26,taskver:20200410.2-blk40+inst}	Doug	26	20200410.2-blk40+inst	debugnvZPE	239	1018.34499998949	1	F	37	p11	1	D	1	500	debugnvZPE_26_Doug	478	F	1	0	5	D	0
{name:Doug,age:26,taskver:20200410.2-blk40+inst}	Doug	26	20200410.2-blk40+inst	debugnvZPE	240	3858.08000003453	1	D	39	p11	1	F	1	500	debugnvZPE_26_Doug	480	F	1	0	5	D	0
{name:Doug,age:26,taskver:20200410.2-blk40+inst}	Doug	26	20200410.2-blk40+inst	debugnvZPE	241	5072.60499999393	0.8	D	39	p28	0.2	F	0.2	0	debugnvZPE_26_Doug	2	F	1	0	6	D	0
{name:Doug,age:26,taskver:20200410.2-blk40+inst}	Doug	26	20200410.2-blk40+inst	debugnvZPE	242	2997.0200000098	0.8	D	37	p28	0.2	F	0.8	0	debugnvZPE_26_Doug	4	D	1	0	6	D	1
{name:Doug,age:26,taskver:20200410.2-blk40+inst}	Doug	26	20200410.2-blk40+inst	debugnvZPE	243	5185.64499996137	0.8	D	39	p28	0.2	F	0.2	0	debugnvZPE_26_Doug	6	F	1	0	6	D	0
{name:Doug,age:26,taskver:20200410.2-blk40+inst}	Doug	26	20200410.2-blk40+inst	debugnvZPE	244	1754.40500001423	0.8	D	37	p28	0.2	F	0.8	500	debugnvZPE_26_Doug	8	D	1	0	6	D	1
{name:Doug,age:26,taskver:20200410.2-blk40+inst}	Doug	26	20200410.2-blk40+inst	debugnvZPE	245	2718.44999992754	0.2	F	39	p28	0.8	D	0.8	0	debugnvZPE_26_Doug	10	D	1	0	6	D	1
{name:Doug,age:26,taskver:20200410.2-blk40+inst}	Doug	26	20200410.2-blk40+inst	debugnvZPE	246	4538.73999998905	0.2	F	39	p28	1	R	1	500	debugnvZPE_26_Doug	12	R	2	1	6	D	0
{name:Doug,age:26,taskver:20200410.2-blk40+inst}	Doug	26	20200410.2-blk40+inst	debugnvZPE	247	2319.17500006966	0.2	F	39	p28	0.8	D	0.8	500	debugnvZPE_26_Doug	14	D	1	0	6	D	1
{name:Doug,age:26,taskver:20200410.2-blk40+inst}	Doug	26	20200410.2-blk40+inst	debugnvZPE	248	7078.10000004247	0.2	F	39	p28	0.8	D	0.8	500	debugnvZPE_26_Doug	16	D	1	0	6	D	1
{name:Doug,age:26,taskver:20200410.2-blk40+inst}	Doug	26	20200410.2-blk40+inst	debugnvZPE	249	2455.18000004813	0.8	D	37	p28	0.2	F	0.8	500	debugnvZPE_26_Doug	18	D	1	0	6	D	1
{name:Doug,age:26,taskver:20200410.2-blk40+inst}	Doug	26	20200410.2-blk40+inst	debugnvZPE	250	1157.450000057	1	R	37	p28	0.2	F	1	500	debugnvZPE_26_Doug	20	R	2	1	6	D	0
{name:Doug,age:26,taskver:20200410.2-blk40+inst}	Doug	26	20200410.2-blk40+inst	debugnvZPE	251	1466.12999995705	0.2	F	39	p28	0.8	D	0.8	500	debugnvZPE_26_Doug	22	D	1	0	6	D	1
{name:Doug,age:26,taskver:20200410.2-blk40+inst}	Doug	26	20200410.2-blk40+inst	debugnvZPE	252	1106.10499989707	0.2	F	39	p28	0.8	D	0.8	500	debugnvZPE_26_Doug	24	D	1	0	6	D	1
{name:Doug,age:26,taskver:20200410.2-blk40+inst}	Doug	26	20200410.2-blk40+inst	debugnvZPE	253	1011.70999999158	0.8	D	37	p28	0.2	F	0.8	500	debugnvZPE_26_Doug	26	D	1	0	6	D	1
{name:Doug,age:26,taskver:20200410.2-blk40+inst}	Doug	26	20200410.2-blk40+inst	debugnvZPE	254	2486.19999992661	0.8	D	37	p28	0.2	F	0.8	500	debugnvZPE_26_Doug	28	D	1	0	6	D	1
{name:Doug,age:26,taskver:20200410.2-blk40+inst}	Doug	26	20200410.2-blk40+inst	debugnvZPE	255	920.264999964274	0.8	D	37	p28	0.2	F	0.8	500	debugnvZPE_26_Doug	30	D	1	0	6	D	1
{name:Doug,age:26,taskver:20200410.2-blk40+inst}	Doug	26	20200410.2-blk40+inst	debugnvZPE	256	6679.37999998685	0.2	F	39	p28	0.8	D	0.8	500	debugnvZPE_26_Doug	32	D	1	0	6	D	1
{name:Doug,age:26,taskver:20200410.2-blk40+inst}	Doug	26	20200410.2-blk40+inst	debugnvZPE	257	1140.91500011273	0.2	F	39	p28	0.8	D	0.8	500	debugnvZPE_26_Doug	34	D	1	0	6	D	1
{name:Doug,age:26,taskver:20200410.2-blk40+inst}	Doug	26	20200410.2-blk40+inst	debugnvZPE	258	1157.20499993768	0.8	D	37	p28	0.2	F	0.8	500	debugnvZPE_26_Doug	36	D	1	0	6	D	1
{name:Doug,age:26,taskver:20200410.2-blk40+inst}	Doug	26	20200410.2-blk40+inst	debugnvZPE	259	5158.36000000127	0.2	F	39	p28	0.8	D	0.8	500	debugnvZPE_26_Doug	38	D	1	0	6	D	1
{name:Doug,age:26,taskver:20200410.2-blk40+inst}	Doug	26	20200410.2-blk40+inst	debugnvZPE	260	4572.28500000201	0.8	D	37	p28	0.2	F	0.8	500	debugnvZPE_26_Doug	40	D	1	0	6	D	1
{name:Doug,age:26,taskver:20200410.2-blk40+inst}	Doug	26	20200410.2-blk40+inst	debugnvZPE	261	1475.25499993935	0.2	F	39	p28	0.8	D	0.8	500	debugnvZPE_26_Doug	42	D	1	0	6	D	1
{name:Doug,age:26,taskver:20200410.2-blk40+inst}	Doug	26	20200410.2-blk40+inst	debugnvZPE	262	635.154999908991	0.8	D	37	p28	0.2	F	0.8	500	debugnvZPE_26_Doug	44	D	1	0	6	D	1
{name:Doug,age:26,taskver:20200410.2-blk40+inst}	Doug	26	20200410.2-blk40+inst	debugnvZPE	263	509.259999962524	0.2	F	39	p28	0.8	D	0.8	500	debugnvZPE_26_Doug	46	D	1	0	6	D	1
{name:Doug,age:26,taskver:20200410.2-blk40+inst}	Doug	26	20200410.2-blk40+inst	debugnvZPE	264	592.219999991357	0.8	D	37	p28	0.2	F	0.8	500	debugnvZPE_26_Doug	48	D	1	0	6	D	1
{name:Doug,age:26,taskver:20200410.2-blk40+inst}	Doug	26	20200410.2-blk40+inst	debugnvZPE	265	13431.1649999581	0.8	D	39	p28	1	R	1	500	debugnvZPE_26_Doug	50	R	2	1	6	D	0
{name:Doug,age:26,taskver:20200410.2-blk40+inst}	Doug	26	20200410.2-blk40+inst	debugnvZPE	266	1276.6849999316	1	R	37	p28	0.8	D	1	500	debugnvZPE_26_Doug	52	R	2	1	6	D	0
{name:Doug,age:26,taskver:20200410.2-blk40+inst}	Doug	26	20200410.2-blk40+inst	debugnvZPE	267	1404.17500003241	0.2	F	39	p28	0.8	D	0.8	500	debugnvZPE_26_Doug	54	D	1	0	6	D	1
{name:Doug,age:26,taskver:20200410.2-blk40+inst}	Doug	26	20200410.2-blk40+inst	debugnvZPE	268	835.330000030808	0.8	D	37	p28	0.2	F	0.8	500	debugnvZPE_26_Doug	56	D	1	0	6	D	1
{name:Doug,age:26,taskver:20200410.2-blk40+inst}	Doug	26	20200410.2-blk40+inst	debugnvZPE	269	651.064999983646	0.2	F	39	p28	0.8	D	0.8	500	debugnvZPE_26_Doug	58	D	1	0	6	D	1
{name:Doug,age:26,taskver:20200410.2-blk40+inst}	Doug	26	20200410.2-blk40+inst	debugnvZPE	270	1403.01499993075	1	R	37	p28	0.2	F	1	500	debugnvZPE_26_Doug	60	R	2	1	6	D	0
{name:Doug,age:26,taskver:20200410.2-blk40+inst}	Doug	26	20200410.2-blk40+inst	debugnvZPE	271	993.515000096522	0.2	F	39	p28	1	R	1	500	debugnvZPE_26_Doug	62	R	2	1	6	D	0
{name:Doug,age:26,taskver:20200410.2-blk40+inst}	Doug	26	20200410.2-blk40+inst	debugnvZPE	272	4706.52500004508	0.2	F	39	p28	0.8	D	0.8	500	debugnvZPE_26_Doug	64	D	1	0	6	D	1
{name:Doug,age:26,taskver:20200410.2-blk40+inst}	Doug	26	20200410.2-blk40+inst	debugnvZPE	273	665.189999970607	0.8	D	37	p28	0.2	F	0.8	500	debugnvZPE_26_Doug	66	D	1	0	6	D	1
{name:Doug,age:26,taskver:20200410.2-blk40+inst}	Doug	26	20200410.2-blk40+inst	debugnvZPE	274	508.675000048243	0.2	F	39	p28	0.8	D	0.8	0	debugnvZPE_26_Doug	68	D	1	0	6	D	1
{name:Doug,age:26,taskver:20200410.2-blk40+inst}	Doug	26	20200410.2-blk40+inst	debugnvZPE	275	2287.32500004116	0.2	F	39	p28	0.8	D	0.8	500	debugnvZPE_26_Doug	70	D	1	0	6	D	1
{name:Doug,age:26,taskver:20200410.2-blk40+inst}	Doug	26	20200410.2-blk40+inst	debugnvZPE	276	1066.62000005599	1	R	37	p28	0.8	D	1	500	debugnvZPE_26_Doug	72	R	2	1	6	D	0
{name:Doug,age:26,taskver:20200410.2-blk40+inst}	Doug	26	20200410.2-blk40+inst	debugnvZPE	277	1232.07500006538	0.8	D	37	p28	0.2	F	0.8	500	debugnvZPE_26_Doug	74	D	1	0	6	D	1
{name:Doug,age:26,taskver:20200410.2-blk40+inst}	Doug	26	20200410.2-blk40+inst	debugnvZPE	278	971.815000055358	0.8	D	37	p28	0.2	F	0.8	500	debugnvZPE_26_Doug	76	D	1	0	6	D	1
{name:Doug,age:26,taskver:20200410.2-blk40+inst}	Doug	26	20200410.2-blk40+inst	debugnvZPE	279	717.164999921806	0.8	D	39	p28	1	R	1	500	debugnvZPE_26_Doug	78	R	2	1	6	D	0
{name:Doug,age:26,taskver:20200410.2-blk40+inst}	Doug	26	20200410.2-blk40+inst	debugnvZPE	280	1478.31999999471	0.2	F	39	p28	0.8	D	0.8	500	debugnvZPE_26_Doug	80	D	1	0	6	D	1
{name:Doug,age:26,taskver:20200410.2-blk40+inst}	Doug	26	20200410.2-blk40+inst	debugnvZPE	281	627.100000041537	0.2	D	37	p82	0.8	F	0.2	0	debugnvZPE_26_Doug	82	D	1	0	7	D	1
{name:Doug,age:26,taskver:20200410.2-blk40+inst}	Doug	26	20200410.2-blk40+inst	debugnvZPE	282	8317.37000006251	0.8	F	39	p82	0.2	D	0.2	0	debugnvZPE_26_Doug	84	D	1	0	7	D	1
{name:Doug,age:26,taskver:20200410.2-blk40+inst}	Doug	26	20200410.2-blk40+inst	debugnvZPE	283	1022.25000003818	0.8	F	39	p82	0.2	D	0.2	500	debugnvZPE_26_Doug	86	D	1	0	7	D	1
{name:Doug,age:26,taskver:20200410.2-blk40+inst}	Doug	26	20200410.2-blk40+inst	debugnvZPE	284	708.294999902137	0.2	D	37	p82	0.8	F	0.2	0	debugnvZPE_26_Doug	88	D	1	0	7	D	1
{name:Doug,age:26,taskver:20200410.2-blk40+inst}	Doug	26	20200410.2-blk40+inst	debugnvZPE	285	903.339999960735	0.8	F	39	p82	1	R	1	500	debugnvZPE_26_Doug	90	R	2	1	7	D	0
{name:Doug,age:26,taskver:20200410.2-blk40+inst}	Doug	26	20200410.2-blk40+inst	debugnvZPE	286	588.764999993145	0.2	D	37	p82	0.8	F	0.2	0	debugnvZPE_26_Doug	92	D	1	0	7	D	1
{name:Doug,age:26,taskver:20200410.2-blk40+inst}	Doug	26	20200410.2-blk40+inst	debugnvZPE	287	980.364999966696	0.2	D	39	p82	0.8	F	0.8	500	debugnvZPE_26_Doug	94	F	1	0	7	D	0
{name:Doug,age:26,taskver:20200410.2-blk40+inst}	Doug	26	20200410.2-blk40+inst	debugnvZPE	288	668.225000030361	0.2	D	39	p82	0.8	F	0.8	0	debugnvZPE_26_Doug	96	F	1	0	7	D	0
{name:Doug,age:26,taskver:20200410.2-blk40+inst}	Doug	26	20200410.2-blk40+inst	debugnvZPE	289	2604.53999997117	0.8	F	39	p82	0.2	D	0.2	0	debugnvZPE_26_Doug	98	D	1	0	7	D	1
{name:Doug,age:26,taskver:20200410.2-blk40+inst}	Doug	26	20200410.2-blk40+inst	debugnvZPE	290	842.784999986179	0.2	D	37	p82	0.8	F	0.2	0	debugnvZPE_26_Doug	100	D	1	0	7	D	1
{name:Doug,age:26,taskver:20200410.2-blk40+inst}	Doug	26	20200410.2-blk40+inst	debugnvZPE	291	2537.72000002209	0.8	F	37	p82	0.2	D	0.8	500	debugnvZPE_26_Doug	102	F	1	0	7	D	0
{name:Doug,age:26,taskver:20200410.2-blk40+inst}	Doug	26	20200410.2-blk40+inst	debugnvZPE	292	4090.69500002079	0.2	D	39	p82	0.8	F	0.8	500	debugnvZPE_26_Doug	104	F	1	0	7	D	0
{name:Doug,age:26,taskver:20200410.2-blk40+inst}	Doug	26	20200410.2-blk40+inst	debugnvZPE	293	1052.51499998849	0.2	D	39	p82	1	R	1	500	debugnvZPE_26_Doug	106	R	2	1	7	D	0
{name:Doug,age:26,taskver:20200410.2-blk40+inst}	Doug	26	20200410.2-blk40+inst	debugnvZPE	294	1412.54000004847	0.2	D	39	p82	0.8	F	0.8	500	debugnvZPE_26_Doug	108	F	1	0	7	D	0
{name:Doug,age:26,taskver:20200410.2-blk40+inst}	Doug	26	20200410.2-blk40+inst	debugnvZPE	295	1610.33500009216	1	R	37	p82	0.2	D	1	500	debugnvZPE_26_Doug	110	R	2	1	7	D	0
{name:Doug,age:26,taskver:20200410.2-blk40+inst}	Doug	26	20200410.2-blk40+inst	debugnvZPE	296	844.595000031404	0.8	F	37	p82	0.2	D	0.8	0	debugnvZPE_26_Doug	112	F	1	0	7	D	0
{name:Doug,age:26,taskver:20200410.2-blk40+inst}	Doug	26	20200410.2-blk40+inst	debugnvZPE	297	1823.65999999456	0.2	D	37	p82	0.8	F	0.2	0	debugnvZPE_26_Doug	114	D	1	0	7	D	1
{name:Doug,age:26,taskver:20200410.2-blk40+inst}	Doug	26	20200410.2-blk40+inst	debugnvZPE	298	1013.42500001192	0.2	D	39	p82	1	R	1	500	debugnvZPE_26_Doug	116	R	2	1	7	D	0
{name:Doug,age:26,taskver:20200410.2-blk40+inst}	Doug	26	20200410.2-blk40+inst	debugnvZPE	299	880.494999932125	0.8	F	37	p82	0.2	D	0.8	500	debugnvZPE_26_Doug	118	F	1	0	7	D	0
{name:Doug,age:26,taskver:20200410.2-blk40+inst}	Doug	26	20200410.2-blk40+inst	debugnvZPE	300	1195.81499998458	1	R	37	p82	0.8	F	1	500	debugnvZPE_26_Doug	120	R	2	1	7	D	0
{name:Doug,age:26,taskver:20200410.2-blk40+inst}	Doug	26	20200410.2-blk40+inst	debugnvZPE	301	1169.02500006836	0.8	F	37	p82	0.2	D	0.8	500	debugnvZPE_26_Doug	122	F	1	0	7	D	0
{name:Doug,age:26,taskver:20200410.2-blk40+inst}	Doug	26	20200410.2-blk40+inst	debugnvZPE	302	702.294999966398	0.2	D	39	p82	0.8	F	0.8	500	debugnvZPE_26_Doug	124	F	1	0	7	D	0
{name:Doug,age:26,taskver:20200410.2-blk40+inst}	Doug	26	20200410.2-blk40+inst	debugnvZPE	303	1000	0.8	F	37	p82	0.2	D	0.8	500	debugnvZPE_26_Doug	126	F	1	0	7	D	0
{name:Doug,age:26,taskver:20200410.2-blk40+inst}	Doug	26	20200410.2-blk40+inst	debugnvZPE	304	660.829999949783	0.8	F	37	p82	0.2	D	0.8	500	debugnvZPE_26_Doug	128	F	1	0	7	D	0
{name:Doug,age:26,taskver:20200410.2-blk40+inst}	Doug	26	20200410.2-blk40+inst	debugnvZPE	305	695.990000036545	0.8	F	37	p82	0.2	D	0.8	0	debugnvZPE_26_Doug	130	F	1	0	7	D	0
{name:Doug,age:26,taskver:20200410.2-blk40+inst}	Doug	26	20200410.2-blk40+inst	debugnvZPE	306	1716.84999996796	0.2	D	39	p82	0.8	F	0.8	500	debugnvZPE_26_Doug	132	F	1	0	7	D	0
{name:Doug,age:26,taskver:20200410.2-blk40+inst}	Doug	26	20200410.2-blk40+inst	debugnvZPE	307	714.249999960884	1	R	37	p82	0.8	F	1	500	debugnvZPE_26_Doug	134	R	2	1	7	D	0
{name:Doug,age:26,taskver:20200410.2-blk40+inst}	Doug	26	20200410.2-blk40+inst	debugnvZPE	308	3046.34500003885	0.8	F	37	p82	0.2	D	0.8	500	debugnvZPE_26_Doug	136	F	1	0	7	D	0
{name:Doug,age:26,taskver:20200410.2-blk40+inst}	Doug	26	20200410.2-blk40+inst	debugnvZPE	309	1581.54000004288	0.2	D	39	p82	0.8	F	0.8	500	debugnvZPE_26_Doug	138	F	1	0	7	D	0
{name:Doug,age:26,taskver:20200410.2-blk40+inst}	Doug	26	20200410.2-blk40+inst	debugnvZPE	310	633.069999981672	0.8	F	37	p82	0.2	D	0.8	0	debugnvZPE_26_Doug	140	F	1	0	7	D	0
{name:Doug,age:26,taskver:20200410.2-blk40+inst}	Doug	26	20200410.2-blk40+inst	debugnvZPE	311	1287.53500001039	0.8	F	37	p82	0.2	D	0.8	500	debugnvZPE_26_Doug	142	F	1	0	7	D	0
{name:Doug,age:26,taskver:20200410.2-blk40+inst}	Doug	26	20200410.2-blk40+inst	debugnvZPE	312	642.285000067204	0.8	F	37	p82	0.2	D	0.8	0	debugnvZPE_26_Doug	144	F	1	0	7	D	0
{name:Doug,age:26,taskver:20200410.2-blk40+inst}	Doug	26	20200410.2-blk40+inst	debugnvZPE	313	737.735000089742	0.8	F	39	p82	1	R	1	500	debugnvZPE_26_Doug	146	R	2	1	7	D	0
{name:Doug,age:26,taskver:20200410.2-blk40+inst}	Doug	26	20200410.2-blk40+inst	debugnvZPE	314	925.339999957941	0.2	D	39	p82	0.8	F	0.8	500	debugnvZPE_26_Doug	148	F	1	0	7	D	0
{name:Doug,age:26,taskver:20200410.2-blk40+inst}	Doug	26	20200410.2-blk40+inst	debugnvZPE	315	857.809999957681	1	R	37	p82	0.2	D	1	500	debugnvZPE_26_Doug	150	R	2	1	7	D	0
{name:Doug,age:26,taskver:20200410.2-blk40+inst}	Doug	26	20200410.2-blk40+inst	debugnvZPE	316	630.144999944605	0.2	D	39	p82	0.8	F	0.8	500	debugnvZPE_26_Doug	152	F	1	0	7	D	0
{name:Doug,age:26,taskver:20200410.2-blk40+inst}	Doug	26	20200410.2-blk40+inst	debugnvZPE	317	901.150000048801	0.2	D	39	p82	0.8	F	0.8	500	debugnvZPE_26_Doug	154	F	1	0	7	D	0
{name:Doug,age:26,taskver:20200410.2-blk40+inst}	Doug	26	20200410.2-blk40+inst	debugnvZPE	318	565.249999985099	0.2	D	39	p82	0.8	F	0.8	0	debugnvZPE_26_Doug	156	F	1	0	7	D	0
{name:Doug,age:26,taskver:20200410.2-blk40+inst}	Doug	26	20200410.2-blk40+inst	debugnvZPE	319	674.235000042245	0.8	F	37	p82	0.2	D	0.8	500	debugnvZPE_26_Doug	158	F	1	0	7	D	0
{name:Doug,age:26,taskver:20200410.2-blk40+inst}	Doug	26	20200410.2-blk40+inst	debugnvZPE	320	622.419999912381	0.8	F	37	p82	0.2	D	0.8	0	debugnvZPE_26_Doug	160	F	1	0	7	D	0
{name:Doug,age:26,taskver:20200410.2-blk40+inst}	Doug	26	20200410.2-blk40+inst	debugnvZPE	321	1377.1649999544	0.8	D	37	p28	0.2	F	0.8	500	debugnvZPE_26_Doug	162	D	1	0	8	D	1
{name:Doug,age:26,taskver:20200410.2-blk40+inst}	Doug	26	20200410.2-blk40+inst	debugnvZPE	322	846.200000029057	0.8	D	39	p28	1	R	1	500	debugnvZPE_26_Doug	164	R	2	1	8	D	0
{name:Doug,age:26,taskver:20200410.2-blk40+inst}	Doug	26	20200410.2-blk40+inst	debugnvZPE	323	852.165000047535	0.2	F	39	p28	0.8	D	0.8	0	debugnvZPE_26_Doug	166	D	1	0	8	D	1
{name:Doug,age:26,taskver:20200410.2-blk40+inst}	Doug	26	20200410.2-blk40+inst	debugnvZPE	324	2751.67999998666	0.8	D	39	p28	0.2	F	0.2	0	debugnvZPE_26_Doug	168	F	1	0	8	D	0
{name:Doug,age:26,taskver:20200410.2-blk40+inst}	Doug	26	20200410.2-blk40+inst	debugnvZPE	325	765.104999998584	1	R	37	p28	0.8	D	1	500	debugnvZPE_26_Doug	170	R	2	1	8	D	0
{name:Doug,age:26,taskver:20200410.2-blk40+inst}	Doug	26	20200410.2-blk40+inst	debugnvZPE	326	993.175000068732	0.2	F	39	p28	0.8	D	0.8	500	debugnvZPE_26_Doug	172	D	1	0	8	D	1
{name:Doug,age:26,taskver:20200410.2-blk40+inst}	Doug	26	20200410.2-blk40+inst	debugnvZPE	327	975.890000001527	0.2	F	39	p28	0.8	D	0.8	500	debugnvZPE_26_Doug	174	D	1	0	8	D	1
{name:Doug,age:26,taskver:20200410.2-blk40+inst}	Doug	26	20200410.2-blk40+inst	debugnvZPE	328	614.554999978282	0.2	F	39	p28	0.8	D	0.8	500	debugnvZPE_26_Doug	176	D	1	0	8	D	1
{name:Doug,age:26,taskver:20200410.2-blk40+inst}	Doug	26	20200410.2-blk40+inst	debugnvZPE	329	631.919999956153	0.2	F	39	p28	0.8	D	0.8	500	debugnvZPE_26_Doug	178	D	1	0	8	D	1
{name:Doug,age:26,taskver:20200410.2-blk40+inst}	Doug	26	20200410.2-blk40+inst	debugnvZPE	330	1744.79999998584	0.2	F	39	p28	0.8	D	0.8	500	debugnvZPE_26_Doug	180	D	1	0	8	D	1
{name:Doug,age:26,taskver:20200410.2-blk40+inst}	Doug	26	20200410.2-blk40+inst	debugnvZPE	331	936.824999982491	0.8	D	39	p28	0.2	F	0.2	500	debugnvZPE_26_Doug	182	F	1	0	8	D	0
{name:Doug,age:26,taskver:20200410.2-blk40+inst}	Doug	26	20200410.2-blk40+inst	debugnvZPE	332	1082.53000001423	0.2	F	39	p28	0.8	D	0.8	500	debugnvZPE_26_Doug	184	D	1	0	8	D	1
{name:Doug,age:26,taskver:20200410.2-blk40+inst}	Doug	26	20200410.2-blk40+inst	debugnvZPE	333	1636.31500001065	1	R	37	p28	0.8	D	1	500	debugnvZPE_26_Doug	186	R	2	1	8	D	0
{name:Doug,age:26,taskver:20200410.2-blk40+inst}	Doug	26	20200410.2-blk40+inst	debugnvZPE	334	585.884999949485	0.2	F	39	p28	0.8	D	0.8	500	debugnvZPE_26_Doug	188	D	1	0	8	D	1
{name:Doug,age:26,taskver:20200410.2-blk40+inst}	Doug	26	20200410.2-blk40+inst	debugnvZPE	335	853.415000019595	0.8	D	39	p28	0.2	F	0.2	0	debugnvZPE_26_Doug	190	F	1	0	8	D	0
{name:Doug,age:26,taskver:20200410.2-blk40+inst}	Doug	26	20200410.2-blk40+inst	debugnvZPE	336	1055.3399999626	0.2	F	39	p28	0.8	D	0.8	500	debugnvZPE_26_Doug	192	D	1	0	8	D	1
{name:Doug,age:26,taskver:20200410.2-blk40+inst}	Doug	26	20200410.2-blk40+inst	debugnvZPE	337	913.700000033714	0.2	F	39	p28	1	R	1	500	debugnvZPE_26_Doug	194	R	2	1	8	D	0
{name:Doug,age:26,taskver:20200410.2-blk40+inst}	Doug	26	20200410.2-blk40+inst	debugnvZPE	338	780.35999997519	0.8	D	39	p28	1	R	1	500	debugnvZPE_26_Doug	196	R	2	1	8	D	0
{name:Doug,age:26,taskver:20200410.2-blk40+inst}	Doug	26	20200410.2-blk40+inst	debugnvZPE	339	1251.53000000864	0.2	F	39	p28	0.8	D	0.8	500	debugnvZPE_26_Doug	198	D	1	0	8	D	1
{name:Doug,age:26,taskver:20200410.2-blk40+inst}	Doug	26	20200410.2-blk40+inst	debugnvZPE	340	3090.96499998122	0.8	D	37	p28	0.2	F	0.8	500	debugnvZPE_26_Doug	200	D	1	0	8	D	1
{name:Doug,age:26,taskver:20200410.2-blk40+inst}	Doug	26	20200410.2-blk40+inst	debugnvZPE	341	860.050000017509	0.8	D	37	p28	0.2	F	0.8	0	debugnvZPE_26_Doug	202	D	1	0	8	D	1
{name:Doug,age:26,taskver:20200410.2-blk40+inst}	Doug	26	20200410.2-blk40+inst	debugnvZPE	342	614.115000003949	0.8	D	39	p28	0.2	F	0.2	0	debugnvZPE_26_Doug	204	F	1	0	8	D	0
{name:Doug,age:26,taskver:20200410.2-blk40+inst}	Doug	26	20200410.2-blk40+inst	debugnvZPE	343	512.109999894165	0.8	D	37	p28	0.2	F	0.8	500	debugnvZPE_26_Doug	206	D	1	0	8	D	1
{name:Doug,age:26,taskver:20200410.2-blk40+inst}	Doug	26	20200410.2-blk40+inst	debugnvZPE	344	855.110000004061	0.2	F	39	p28	0.8	D	0.8	500	debugnvZPE_26_Doug	208	D	1	0	8	D	1
{name:Doug,age:26,taskver:20200410.2-blk40+inst}	Doug	26	20200410.2-blk40+inst	debugnvZPE	345	561.25000002794	0.8	D	37	p28	0.2	F	0.8	500	debugnvZPE_26_Doug	210	D	1	0	8	D	1
{name:Doug,age:26,taskver:20200410.2-blk40+inst}	Doug	26	20200410.2-blk40+inst	debugnvZPE	346	789.965000003576	0.8	D	37	p28	0.2	F	0.8	500	debugnvZPE_26_Doug	212	D	1	0	8	D	1
{name:Doug,age:26,taskver:20200410.2-blk40+inst}	Doug	26	20200410.2-blk40+inst	debugnvZPE	347	806.185000110418	1	R	37	p28	0.2	F	1	500	debugnvZPE_26_Doug	214	R	2	1	8	D	0
{name:Doug,age:26,taskver:20200410.2-blk40+inst}	Doug	26	20200410.2-blk40+inst	debugnvZPE	348	959.069999982603	0.2	F	39	p28	0.8	D	0.8	500	debugnvZPE_26_Doug	216	D	1	0	8	D	1
{name:Doug,age:26,taskver:20200410.2-blk40+inst}	Doug	26	20200410.2-blk40+inst	debugnvZPE	349	903.609999921173	0.2	F	39	p28	0.8	D	0.8	500	debugnvZPE_26_Doug	218	D	1	0	8	D	1
{name:Doug,age:26,taskver:20200410.2-blk40+inst}	Doug	26	20200410.2-blk40+inst	debugnvZPE	350	615.340000018477	0.2	F	39	p28	0.8	D	0.8	500	debugnvZPE_26_Doug	220	D	1	0	8	D	1
{name:Doug,age:26,taskver:20200410.2-blk40+inst}	Doug	26	20200410.2-blk40+inst	debugnvZPE	351	1022.27499999572	0.8	D	37	p28	0.2	F	0.8	0	debugnvZPE_26_Doug	222	D	1	0	8	D	1
{name:Doug,age:26,taskver:20200410.2-blk40+inst}	Doug	26	20200410.2-blk40+inst	debugnvZPE	352	1202.04000000376	0.8	D	39	p28	0.2	F	0.2	0	debugnvZPE_26_Doug	224	F	1	0	8	D	0
{name:Doug,age:26,taskver:20200410.2-blk40+inst}	Doug	26	20200410.2-blk40+inst	debugnvZPE	353	970.214999979362	0.8	D	37	p28	0.2	F	0.8	500	debugnvZPE_26_Doug	226	D	1	0	8	D	1
{name:Doug,age:26,taskver:20200410.2-blk40+inst}	Doug	26	20200410.2-blk40+inst	debugnvZPE	354	642.200000002049	0.2	F	39	p28	0.8	D	0.8	500	debugnvZPE_26_Doug	228	D	1	0	8	D	1
{name:Doug,age:26,taskver:20200410.2-blk40+inst}	Doug	26	20200410.2-blk40+inst	debugnvZPE	355	865.325000020675	1	R	37	p28	0.2	F	1	500	debugnvZPE_26_Doug	230	R	2	1	8	D	0
{name:Doug,age:26,taskver:20200410.2-blk40+inst}	Doug	26	20200410.2-blk40+inst	debugnvZPE	356	877.444999990985	0.8	D	37	p28	0.2	F	0.8	500	debugnvZPE_26_Doug	232	D	1	0	8	D	1
{name:Doug,age:26,taskver:20200410.2-blk40+inst}	Doug	26	20200410.2-blk40+inst	debugnvZPE	357	630.699999979697	0.2	F	39	p28	0.8	D	0.8	500	debugnvZPE_26_Doug	234	D	1	0	8	D	1
{name:Doug,age:26,taskver:20200410.2-blk40+inst}	Doug	26	20200410.2-blk40+inst	debugnvZPE	358	647.905000019819	0.2	F	39	p28	1	R	1	500	debugnvZPE_26_Doug	236	R	2	1	8	D	0
{name:Doug,age:26,taskver:20200410.2-blk40+inst}	Doug	26	20200410.2-blk40+inst	debugnvZPE	359	751.589999999851	0.8	D	37	p28	0.2	F	0.8	500	debugnvZPE_26_Doug	238	D	1	0	8	D	1
{name:Doug,age:26,taskver:20200410.2-blk40+inst}	Doug	26	20200410.2-blk40+inst	debugnvZPE	360	781.104999943636	0.8	D	37	p28	0.2	F	0.8	500	debugnvZPE_26_Doug	240	D	1	0	8	D	1
{name:Doug,age:26,taskver:20200410.2-blk40+inst}	Doug	26	20200410.2-blk40+inst	debugnvZPE	361	672.160000074655	0.2	D	37	p82	0.8	F	0.2	0	debugnvZPE_26_Doug	242	D	1	0	9	D	1
{name:Doug,age:26,taskver:20200410.2-blk40+inst}	Doug	26	20200410.2-blk40+inst	debugnvZPE	362	971.879999968223	0.2	D	37	p82	0.8	F	0.2	0	debugnvZPE_26_Doug	244	D	1	0	9	D	1
{name:Doug,age:26,taskver:20200410.2-blk40+inst}	Doug	26	20200410.2-blk40+inst	debugnvZPE	363	701.980000012554	0.8	F	39	p82	0.2	D	0.2	500	debugnvZPE_26_Doug	246	D	1	0	9	D	1
{name:Doug,age:26,taskver:20200410.2-blk40+inst}	Doug	26	20200410.2-blk40+inst	debugnvZPE	364	648.110000067391	1	R	37	p82	0.8	F	1	500	debugnvZPE_26_Doug	248	R	2	1	9	D	0
{name:Doug,age:26,taskver:20200410.2-blk40+inst}	Doug	26	20200410.2-blk40+inst	debugnvZPE	365	886.339999968186	0.2	D	37	p82	0.8	F	0.2	500	debugnvZPE_26_Doug	250	D	1	0	9	D	1
{name:Doug,age:26,taskver:20200410.2-blk40+inst}	Doug	26	20200410.2-blk40+inst	debugnvZPE	366	2688.04000003729	0.8	F	39	p82	0.2	D	0.2	0	debugnvZPE_26_Doug	252	D	1	0	9	D	1
{name:Doug,age:26,taskver:20200410.2-blk40+inst}	Doug	26	20200410.2-blk40+inst	debugnvZPE	367	2056.60999997053	0.8	F	39	p82	0.2	D	0.2	0	debugnvZPE_26_Doug	254	D	1	0	9	D	1
{name:Doug,age:26,taskver:20200410.2-blk40+inst}	Doug	26	20200410.2-blk40+inst	debugnvZPE	368	751.210000016727	0.2	D	37	p82	0.8	F	0.2	0	debugnvZPE_26_Doug	256	D	1	0	9	D	1
{name:Doug,age:26,taskver:20200410.2-blk40+inst}	Doug	26	20200410.2-blk40+inst	debugnvZPE	369	840.315000037663	0.8	F	39	p82	1	R	1	500	debugnvZPE_26_Doug	258	R	2	1	9	D	0
{name:Doug,age:26,taskver:20200410.2-blk40+inst}	Doug	26	20200410.2-blk40+inst	debugnvZPE	370	8322.98499997705	0.8	F	39	p82	1	R	1	500	debugnvZPE_26_Doug	260	R	2	1	9	D	0
{name:Doug,age:26,taskver:20200410.2-blk40+inst}	Doug	26	20200410.2-blk40+inst	debugnvZPE	371	3609.67499995604	0.8	F	39	p82	0.2	D	0.2	500	debugnvZPE_26_Doug	262	D	1	0	9	D	1
{name:Doug,age:26,taskver:20200410.2-blk40+inst}	Doug	26	20200410.2-blk40+inst	debugnvZPE	372	670.094999950379	0.2	D	37	p82	0.8	F	0.2	0	debugnvZPE_26_Doug	264	D	1	0	9	D	1
{name:Doug,age:26,taskver:20200410.2-blk40+inst}	Doug	26	20200410.2-blk40+inst	debugnvZPE	373	3736.87999998219	0.2	D	39	p82	1	R	1	500	debugnvZPE_26_Doug	266	R	2	1	9	D	0
{name:Doug,age:26,taskver:20200410.2-blk40+inst}	Doug	26	20200410.2-blk40+inst	debugnvZPE	374	2943.99000005797	1	R	37	p82	0.2	D	1	500	debugnvZPE_26_Doug	268	R	2	1	9	D	0
{name:Doug,age:26,taskver:20200410.2-blk40+inst}	Doug	26	20200410.2-blk40+inst	debugnvZPE	375	763.730000006035	0.8	F	39	p82	0.2	D	0.2	500	debugnvZPE_26_Doug	270	D	1	0	9	D	1
{name:Doug,age:26,taskver:20200410.2-blk40+inst}	Doug	26	20200410.2-blk40+inst	debugnvZPE	376	571.055000065826	0.2	D	37	p82	0.8	F	0.2	0	debugnvZPE_26_Doug	272	D	1	0	9	D	1
{name:Doug,age:26,taskver:20200410.2-blk40+inst}	Doug	26	20200410.2-blk40+inst	debugnvZPE	377	10070.1249999693	0.8	F	39	p82	0.2	D	0.2	0	debugnvZPE_26_Doug	274	D	1	0	9	D	1
{name:Doug,age:26,taskver:20200410.2-blk40+inst}	Doug	26	20200410.2-blk40+inst	debugnvZPE	378	665.574999991804	0.2	D	37	p82	0.8	F	0.2	0	debugnvZPE_26_Doug	276	D	1	0	9	D	1
{name:Doug,age:26,taskver:20200410.2-blk40+inst}	Doug	26	20200410.2-blk40+inst	debugnvZPE	379	1327.4949999759	0.2	D	37	p82	0.8	F	0.2	0	debugnvZPE_26_Doug	278	D	1	0	9	D	1
{name:Doug,age:26,taskver:20200410.2-blk40+inst}	Doug	26	20200410.2-blk40+inst	debugnvZPE	380	4287.565000006	0.8	F	39	p82	0.2	D	0.2	0	debugnvZPE_26_Doug	280	D	1	0	9	D	1
{name:Doug,age:26,taskver:20200410.2-blk40+inst}	Doug	26	20200410.2-blk40+inst	debugnvZPE	381	767.594999982975	0.2	D	39	p82	0.8	F	0.8	500	debugnvZPE_26_Doug	282	F	1	0	9	D	0
{name:Doug,age:26,taskver:20200410.2-blk40+inst}	Doug	26	20200410.2-blk40+inst	debugnvZPE	382	597.915000049397	0.2	D	39	p82	0.8	F	0.8	500	debugnvZPE_26_Doug	284	F	1	0	9	D	0
{name:Doug,age:26,taskver:20200410.2-blk40+inst}	Doug	26	20200410.2-blk40+inst	debugnvZPE	383	1144.13500006776	0.2	D	39	p82	0.8	F	0.8	500	debugnvZPE_26_Doug	286	F	1	0	9	D	0
{name:Doug,age:26,taskver:20200410.2-blk40+inst}	Doug	26	20200410.2-blk40+inst	debugnvZPE	384	1044.22500007786	0.8	F	37	p82	0.2	D	0.8	500	debugnvZPE_26_Doug	288	F	1	0	9	D	0
{name:Doug,age:26,taskver:20200410.2-blk40+inst}	Doug	26	20200410.2-blk40+inst	debugnvZPE	385	727.309999987483	0.8	F	37	p82	0.2	D	0.8	500	debugnvZPE_26_Doug	290	F	1	0	9	D	0
{name:Doug,age:26,taskver:20200410.2-blk40+inst}	Doug	26	20200410.2-blk40+inst	debugnvZPE	386	691.970000043511	0.2	D	39	p82	0.8	F	0.8	500	debugnvZPE_26_Doug	292	F	1	0	9	D	0
{name:Doug,age:26,taskver:20200410.2-blk40+inst}	Doug	26	20200410.2-blk40+inst	debugnvZPE	387	660.084999981336	0.8	F	37	p82	0.2	D	0.8	500	debugnvZPE_26_Doug	294	F	1	0	9	D	0
{name:Doug,age:26,taskver:20200410.2-blk40+inst}	Doug	26	20200410.2-blk40+inst	debugnvZPE	388	2167.98500006553	1	R	39	p82	0.8	F	0.8	0	debugnvZPE_26_Doug	296	F	2	0	9	D	0
{name:Doug,age:26,taskver:20200410.2-blk40+inst}	Doug	26	20200410.2-blk40+inst	debugnvZPE	389	3419.03999994975	1	R	37	p82	0.2	D	1	500	debugnvZPE_26_Doug	298	R	2	1	9	D	0
{name:Doug,age:26,taskver:20200410.2-blk40+inst}	Doug	26	20200410.2-blk40+inst	debugnvZPE	390	804.430000018328	0.8	F	39	p82	0.2	D	0.2	500	debugnvZPE_26_Doug	300	D	1	0	9	D	1
{name:Doug,age:26,taskver:20200410.2-blk40+inst}	Doug	26	20200410.2-blk40+inst	debugnvZPE	391	936.289999983273	0.8	F	39	p82	0.2	D	0.2	500	debugnvZPE_26_Doug	302	D	1	0	9	D	1
{name:Doug,age:26,taskver:20200410.2-blk40+inst}	Doug	26	20200410.2-blk40+inst	debugnvZPE	392	729.350000037812	0.2	D	37	p82	0.8	F	0.2	0	debugnvZPE_26_Doug	304	D	1	0	9	D	1
{name:Doug,age:26,taskver:20200410.2-blk40+inst}	Doug	26	20200410.2-blk40+inst	debugnvZPE	393	959.065000060946	0.2	D	39	p82	0.8	F	0.8	0	debugnvZPE_26_Doug	306	F	1	0	9	D	0
{name:Doug,age:26,taskver:20200410.2-blk40+inst}	Doug	26	20200410.2-blk40+inst	debugnvZPE	394	681.154999998398	0.8	F	37	p82	0.2	D	0.8	500	debugnvZPE_26_Doug	308	F	1	0	9	D	0
{name:Doug,age:26,taskver:20200410.2-blk40+inst}	Doug	26	20200410.2-blk40+inst	debugnvZPE	395	574.125000042841	0.8	F	37	p82	0.2	D	0.8	500	debugnvZPE_26_Doug	310	F	1	0	9	D	0
{name:Doug,age:26,taskver:20200410.2-blk40+inst}	Doug	26	20200410.2-blk40+inst	debugnvZPE	396	6277.55999995861	0.2	D	39	p82	1	R	1	500	debugnvZPE_26_Doug	312	R	2	1	9	D	0
{name:Doug,age:26,taskver:20200410.2-blk40+inst}	Doug	26	20200410.2-blk40+inst	debugnvZPE	397	2546.26499989536	0.2	D	39	p82	0.8	F	0.8	0	debugnvZPE_26_Doug	314	F	1	0	9	D	0
{name:Doug,age:26,taskver:20200410.2-blk40+inst}	Doug	26	20200410.2-blk40+inst	debugnvZPE	398	2160.38500005379	0.8	F	37	p82	0.2	D	0.8	500	debugnvZPE_26_Doug	316	F	1	0	9	D	0
{name:Doug,age:26,taskver:20200410.2-blk40+inst}	Doug	26	20200410.2-blk40+inst	debugnvZPE	399	3001.4150000643	0.8	F	39	p82	0.2	D	0.2	0	debugnvZPE_26_Doug	318	D	1	0	9	D	1
{name:Doug,age:26,taskver:20200410.2-blk40+inst}	Doug	26	20200410.2-blk40+inst	debugnvZPE	400	540.580000029877	0.2	D	37	p82	0.8	F	0.2	0	debugnvZPE_26_Doug	320	D	1	0	9	D	1
{name:Doug,age:26,taskver:20200410.2-blk40+inst}	Doug	26	20200410.2-blk40+inst	debugnvZPE	401	744.999999995343	1	F	39	p11	1	R	1	500	debugnvZPE_26_Doug	322	R	2	1	10	D	0
{name:Doug,age:26,taskver:20200410.2-blk40+inst}	Doug	26	20200410.2-blk40+inst	debugnvZPE	402	1113.36499999743	1	D	39	p11	1	R	1	500	debugnvZPE_26_Doug	324	R	2	1	10	D	0
{name:Doug,age:26,taskver:20200410.2-blk40+inst}	Doug	26	20200410.2-blk40+inst	debugnvZPE	403	905.764999915846	1	F	39	p11	1	D	1	500	debugnvZPE_26_Doug	326	D	1	0	10	D	1
{name:Doug,age:26,taskver:20200410.2-blk40+inst}	Doug	26	20200410.2-blk40+inst	debugnvZPE	404	693.320000078529	1	D	37	p11	1	F	1	500	debugnvZPE_26_Doug	328	D	1	0	10	D	1
{name:Doug,age:26,taskver:20200410.2-blk40+inst}	Doug	26	20200410.2-blk40+inst	debugnvZPE	405	697.27000000421	1	D	37	p11	1	F	1	500	debugnvZPE_26_Doug	330	D	1	0	10	D	1
{name:Doug,age:26,taskver:20200410.2-blk40+inst}	Doug	26	20200410.2-blk40+inst	debugnvZPE	406	632.534999982454	1	F	39	p11	1	D	1	500	debugnvZPE_26_Doug	332	D	1	0	10	D	1
{name:Doug,age:26,taskver:20200410.2-blk40+inst}	Doug	26	20200410.2-blk40+inst	debugnvZPE	407	736.455000005662	1	F	39	p11	1	D	1	500	debugnvZPE_26_Doug	334	D	1	0	10	D	1
{name:Doug,age:26,taskver:20200410.2-blk40+inst}	Doug	26	20200410.2-blk40+inst	debugnvZPE	408	711.669999989681	1	R	37	p11	1	F	1	500	debugnvZPE_26_Doug	336	R	2	1	10	D	0
{name:Doug,age:26,taskver:20200410.2-blk40+inst}	Doug	26	20200410.2-blk40+inst	debugnvZPE	409	588.705000001937	1	F	39	p11	1	D	1	500	debugnvZPE_26_Doug	338	D	1	0	10	D	1
{name:Doug,age:26,taskver:20200410.2-blk40+inst}	Doug	26	20200410.2-blk40+inst	debugnvZPE	410	532.750000013039	1	D	37	p11	1	F	1	500	debugnvZPE_26_Doug	340	D	1	0	10	D	1
{name:Doug,age:26,taskver:20200410.2-blk40+inst}	Doug	26	20200410.2-blk40+inst	debugnvZPE	411	1345.14999995008	1	D	37	p11	1	F	1	500	debugnvZPE_26_Doug	342	D	1	0	10	D	1
{name:Doug,age:26,taskver:20200410.2-blk40+inst}	Doug	26	20200410.2-blk40+inst	debugnvZPE	412	732.285000034608	1	D	39	p11	1	R	1	500	debugnvZPE_26_Doug	344	R	2	1	10	D	0
{name:Doug,age:26,taskver:20200410.2-blk40+inst}	Doug	26	20200410.2-blk40+inst	debugnvZPE	413	1500.63999998383	1	D	37	p11	1	F	1	500	debugnvZPE_26_Doug	346	D	1	0	10	D	1
{name:Doug,age:26,taskver:20200410.2-blk40+inst}	Doug	26	20200410.2-blk40+inst	debugnvZPE	414	1701.60499995109	1	F	39	p11	1	D	1	500	debugnvZPE_26_Doug	348	D	1	0	10	D	1
{name:Doug,age:26,taskver:20200410.2-blk40+inst}	Doug	26	20200410.2-blk40+inst	debugnvZPE	415	1104.95499998797	1	F	39	p11	1	D	1	500	debugnvZPE_26_Doug	350	D	1	0	10	D	1
{name:Doug,age:26,taskver:20200410.2-blk40+inst}	Doug	26	20200410.2-blk40+inst	debugnvZPE	416	699.215000029653	1	F	39	p11	1	D	1	500	debugnvZPE_26_Doug	352	D	1	0	10	D	1
{name:Doug,age:26,taskver:20200410.2-blk40+inst}	Doug	26	20200410.2-blk40+inst	debugnvZPE	417	1276.39999997336	1	F	39	p11	1	D	1	500	debugnvZPE_26_Doug	354	D	1	0	10	D	1
{name:Doug,age:26,taskver:20200410.2-blk40+inst}	Doug	26	20200410.2-blk40+inst	debugnvZPE	418	771.385000087321	1	F	39	p11	1	D	1	500	debugnvZPE_26_Doug	356	D	1	0	10	D	1
{name:Doug,age:26,taskver:20200410.2-blk40+inst}	Doug	26	20200410.2-blk40+inst	debugnvZPE	419	575.479999999516	1	F	39	p11	1	D	1	500	debugnvZPE_26_Doug	358	D	1	0	10	D	1
{name:Doug,age:26,taskver:20200410.2-blk40+inst}	Doug	26	20200410.2-blk40+inst	debugnvZPE	420	627.254999941215	1	F	39	p11	1	D	1	500	debugnvZPE_26_Doug	360	D	1	0	10	D	1
{name:Doug,age:26,taskver:20200410.2-blk40+inst}	Doug	26	20200410.2-blk40+inst	debugnvZPE	421	643.114999984391	1	F	39	p11	1	D	1	500	debugnvZPE_26_Doug	362	D	1	0	10	D	1
{name:Doug,age:26,taskver:20200410.2-blk40+inst}	Doug	26	20200410.2-blk40+inst	debugnvZPE	422	1037.31499996502	1	D	37	p11	1	F	1	500	debugnvZPE_26_Doug	364	D	1	0	10	D	1
{name:Doug,age:26,taskver:20200410.2-blk40+inst}	Doug	26	20200410.2-blk40+inst	debugnvZPE	423	577.425000024959	1	D	37	p11	1	F	1	500	debugnvZPE_26_Doug	366	D	1	0	10	D	1
{name:Doug,age:26,taskver:20200410.2-blk40+inst}	Doug	26	20200410.2-blk40+inst	debugnvZPE	424	617.375000030734	1	F	39	p11	1	D	1	500	debugnvZPE_26_Doug	368	D	1	0	10	D	1
{name:Doug,age:26,taskver:20200410.2-blk40+inst}	Doug	26	20200410.2-blk40+inst	debugnvZPE	425	513.069999986328	1	F	39	p11	1	D	1	500	debugnvZPE_26_Doug	370	D	1	0	10	D	1
{name:Doug,age:26,taskver:20200410.2-blk40+inst}	Doug	26	20200410.2-blk40+inst	debugnvZPE	426	1212.96499995515	1	F	39	p11	1	R	1	500	debugnvZPE_26_Doug	372	R	2	1	10	D	0
{name:Doug,age:26,taskver:20200410.2-blk40+inst}	Doug	26	20200410.2-blk40+inst	debugnvZPE	427	1068.98500001989	1	D	37	p11	1	F	1	500	debugnvZPE_26_Doug	374	D	1	0	10	D	1
{name:Doug,age:26,taskver:20200410.2-blk40+inst}	Doug	26	20200410.2-blk40+inst	debugnvZPE	428	493.065000046045	1	F	39	p11	1	D	1	500	debugnvZPE_26_Doug	376	D	1	0	10	D	1
{name:Doug,age:26,taskver:20200410.2-blk40+inst}	Doug	26	20200410.2-blk40+inst	debugnvZPE	429	599.245000048541	1	D	37	p11	1	F	1	500	debugnvZPE_26_Doug	378	D	1	0	10	D	1
{name:Doug,age:26,taskver:20200410.2-blk40+inst}	Doug	26	20200410.2-blk40+inst	debugnvZPE	430	463.024999946356	1	F	39	p11	1	D	1	500	debugnvZPE_26_Doug	380	D	1	0	10	D	1
{name:Doug,age:26,taskver:20200410.2-blk40+inst}	Doug	26	20200410.2-blk40+inst	debugnvZPE	431	739.305000053719	1	F	39	p11	1	D	1	500	debugnvZPE_26_Doug	382	D	1	0	10	D	1
{name:Doug,age:26,taskver:20200410.2-blk40+inst}	Doug	26	20200410.2-blk40+inst	debugnvZPE	432	1195.92999992892	1	D	37	p11	1	F	1	500	debugnvZPE_26_Doug	384	D	1	0	10	D	1
{name:Doug,age:26,taskver:20200410.2-blk40+inst}	Doug	26	20200410.2-blk40+inst	debugnvZPE	433	459.18000000529	1	F	39	p11	1	D	1	500	debugnvZPE_26_Doug	386	D	1	0	10	D	1
{name:Doug,age:26,taskver:20200410.2-blk40+inst}	Doug	26	20200410.2-blk40+inst	debugnvZPE	434	573.809999972582	1	D	37	p11	1	F	1	500	debugnvZPE_26_Doug	388	D	1	0	10	D	1
{name:Doug,age:26,taskver:20200410.2-blk40+inst}	Doug	26	20200410.2-blk40+inst	debugnvZPE	435	1294.83499994967	1	D	37	p11	1	R	1	500	debugnvZPE_26_Doug	390	D	2	0	10	D	1
{name:Doug,age:26,taskver:20200410.2-blk40+inst}	Doug	26	20200410.2-blk40+inst	debugnvZPE	436	1315.22499991115	1	F	39	p11	1	D	1	500	debugnvZPE_26_Doug	392	D	1	0	10	D	1
{name:Doug,age:26,taskver:20200410.2-blk40+inst}	Doug	26	20200410.2-blk40+inst	debugnvZPE	437	649.120000074618	1	D	37	p11	1	F	1	500	debugnvZPE_26_Doug	394	D	1	0	10	D	1
{name:Doug,age:26,taskver:20200410.2-blk40+inst}	Doug	26	20200410.2-blk40+inst	debugnvZPE	438	645.245000021532	1	F	39	p11	1	D	1	500	debugnvZPE_26_Doug	396	D	1	0	10	D	1
{name:Doug,age:26,taskver:20200410.2-blk40+inst}	Doug	26	20200410.2-blk40+inst	debugnvZPE	439	593.489999999292	1	D	37	p11	1	F	1	500	debugnvZPE_26_Doug	398	D	1	0	10	D	1
{name:Doug,age:26,taskver:20200410.2-blk40+inst}	Doug	26	20200410.2-blk40+inst	debugnvZPE	440	897.364999982528	1	D	37	p11	1	F	1	500	debugnvZPE_26_Doug	400	D	1	0	10	D	1
{name:Doug,age:26,taskver:20200410.2-blk40+inst}	Doug	26	20200410.2-blk40+inst	debugnvZPE	441	545.344999991357	1	F	39	p11	1	D	1	500	debugnvZPE_26_Doug	402	D	1	0	10	D	1
{name:Doug,age:26,taskver:20200410.2-blk40+inst}	Doug	26	20200410.2-blk40+inst	debugnvZPE	442	709.749999921769	1	D	37	p11	1	F	1	500	debugnvZPE_26_Doug	404	D	1	0	10	D	1
{name:Doug,age:26,taskver:20200410.2-blk40+inst}	Doug	26	20200410.2-blk40+inst	debugnvZPE	443	509.450000012293	1	F	39	p11	1	D	1	500	debugnvZPE_26_Doug	406	D	1	0	10	D	1
{name:Doug,age:26,taskver:20200410.2-blk40+inst}	Doug	26	20200410.2-blk40+inst	debugnvZPE	444	549.954999936745	1	D	37	p11	1	F	1	500	debugnvZPE_26_Doug	408	D	1	0	10	D	1
{name:Doug,age:26,taskver:20200410.2-blk40+inst}	Doug	26	20200410.2-blk40+inst	debugnvZPE	445	819.129999959841	1	D	37	p11	1	F	1	500	debugnvZPE_26_Doug	410	D	1	0	10	D	1
{name:Doug,age:26,taskver:20200410.2-blk40+inst}	Doug	26	20200410.2-blk40+inst	debugnvZPE	446	648.139999946579	1	D	37	p11	1	F	1	500	debugnvZPE_26_Doug	412	D	1	0	10	D	1
{name:Doug,age:26,taskver:20200410.2-blk40+inst}	Doug	26	20200410.2-blk40+inst	debugnvZPE	447	587.115000002086	1	D	37	p11	1	F	1	500	debugnvZPE_26_Doug	414	D	1	0	10	D	1
{name:Doug,age:26,taskver:20200410.2-blk40+inst}	Doug	26	20200410.2-blk40+inst	debugnvZPE	448	622.030000085942	1	F	39	p11	1	D	1	500	debugnvZPE_26_Doug	416	D	1	0	10	D	1
{name:Doug,age:26,taskver:20200410.2-blk40+inst}	Doug	26	20200410.2-blk40+inst	debugnvZPE	449	491.670000017621	1	D	37	p11	1	F	1	500	debugnvZPE_26_Doug	418	D	1	0	10	D	1
{name:Doug,age:26,taskver:20200410.2-blk40+inst}	Doug	26	20200410.2-blk40+inst	debugnvZPE	450	1249.05500002205	1	R	39	p11	1	D	1	500	debugnvZPE_26_Doug	420	D	2	0	10	D	1
{name:Doug,age:26,taskver:20200410.2-blk40+inst}	Doug	26	20200410.2-blk40+inst	debugnvZPE	451	588.955000042915	1	D	37	p11	1	F	1	500	debugnvZPE_26_Doug	422	D	1	0	10	D	1
{name:Doug,age:26,taskver:20200410.2-blk40+inst}	Doug	26	20200410.2-blk40+inst	debugnvZPE	452	515.019999933429	1	F	39	p11	1	D	1	500	debugnvZPE_26_Doug	424	D	1	0	10	D	1
{name:Doug,age:26,taskver:20200410.2-blk40+inst}	Doug	26	20200410.2-blk40+inst	debugnvZPE	453	683.949999976903	1	F	39	p11	1	D	1	500	debugnvZPE_26_Doug	426	D	1	0	10	D	1
{name:Doug,age:26,taskver:20200410.2-blk40+inst}	Doug	26	20200410.2-blk40+inst	debugnvZPE	454	522.22000004258	1	D	37	p11	1	F	1	500	debugnvZPE_26_Doug	428	D	1	0	10	D	1
{name:Doug,age:26,taskver:20200410.2-blk40+inst}	Doug	26	20200410.2-blk40+inst	debugnvZPE	455	1013.00499995705	1	D	37	p11	1	R	1	500	debugnvZPE_26_Doug	430	D	2	0	10	D	1
{name:Doug,age:26,taskver:20200410.2-blk40+inst}	Doug	26	20200410.2-blk40+inst	debugnvZPE	456	1960.94000001904	1	R	37	p11	1	F	1	500	debugnvZPE_26_Doug	432	R	2	1	10	D	0
{name:Doug,age:26,taskver:20200410.2-blk40+inst}	Doug	26	20200410.2-blk40+inst	debugnvZPE	457	884.470000048168	1	F	39	p11	1	R	1	500	debugnvZPE_26_Doug	434	R	2	1	10	D	0
{name:Doug,age:26,taskver:20200410.2-blk40+inst}	Doug	26	20200410.2-blk40+inst	debugnvZPE	458	873.640000005253	1	F	39	p11	1	D	1	500	debugnvZPE_26_Doug	436	D	1	0	10	D	1
{name:Doug,age:26,taskver:20200410.2-blk40+inst}	Doug	26	20200410.2-blk40+inst	debugnvZPE	459	611.109999939799	1	F	39	p11	1	D	1	500	debugnvZPE_26_Doug	438	D	1	0	10	D	1
{name:Doug,age:26,taskver:20200410.2-blk40+inst}	Doug	26	20200410.2-blk40+inst	debugnvZPE	460	863.049999927171	1	F	39	p11	1	D	1	500	debugnvZPE_26_Doug	440	D	1	0	10	D	1
{name:Doug,age:26,taskver:20200410.2-blk40+inst}	Doug	26	20200410.2-blk40+inst	debugnvZPE	461	709.855000022799	1	D	37	p11	1	F	1	500	debugnvZPE_26_Doug	442	D	1	0	10	D	1
{name:Doug,age:26,taskver:20200410.2-blk40+inst}	Doug	26	20200410.2-blk40+inst	debugnvZPE	462	718.01999991294	1	D	37	p11	1	F	1	500	debugnvZPE_26_Doug	444	D	1	0	10	D	1
{name:Doug,age:26,taskver:20200410.2-blk40+inst}	Doug	26	20200410.2-blk40+inst	debugnvZPE	463	634.049999993294	1	F	39	p11	1	D	1	500	debugnvZPE_26_Doug	446	D	1	0	10	D	1
{name:Doug,age:26,taskver:20200410.2-blk40+inst}	Doug	26	20200410.2-blk40+inst	debugnvZPE	464	656.115000019781	1	D	37	p11	1	F	1	500	debugnvZPE_26_Doug	448	D	1	0	10	D	1
{name:Doug,age:26,taskver:20200410.2-blk40+inst}	Doug	26	20200410.2-blk40+inst	debugnvZPE	465	993.350000004284	1	R	39	p11	1	D	1	500	debugnvZPE_26_Doug	450	D	2	0	10	D	1
{name:Doug,age:26,taskver:20200410.2-blk40+inst}	Doug	26	20200410.2-blk40+inst	debugnvZPE	466	508.494999958202	1	D	37	p11	1	F	1	500	debugnvZPE_26_Doug	452	D	1	0	10	D	1
{name:Doug,age:26,taskver:20200410.2-blk40+inst}	Doug	26	20200410.2-blk40+inst	debugnvZPE	467	517.724999925122	1	R	39	p11	1	D	1	500	debugnvZPE_26_Doug	454	D	2	0	10	D	1
{name:Doug,age:26,taskver:20200410.2-blk40+inst}	Doug	26	20200410.2-blk40+inst	debugnvZPE	468	608.20999997668	1	F	39	p11	1	D	1	500	debugnvZPE_26_Doug	456	D	1	0	10	D	1
{name:Doug,age:26,taskver:20200410.2-blk40+inst}	Doug	26	20200410.2-blk40+inst	debugnvZPE	469	1755.24500000756	1	R	37	p11	1	F	1	500	debugnvZPE_26_Doug	458	R	2	1	10	D	0
{name:Doug,age:26,taskver:20200410.2-blk40+inst}	Doug	26	20200410.2-blk40+inst	debugnvZPE	470	690.055000013672	1	D	37	p11	1	F	1	500	debugnvZPE_26_Doug	460	D	1	0	10	D	1
{name:Doug,age:26,taskver:20200410.2-blk40+inst}	Doug	26	20200410.2-blk40+inst	debugnvZPE	471	648.084999993443	1	D	37	p11	1	F	1	500	debugnvZPE_26_Doug	462	D	1	0	10	D	1
{name:Doug,age:26,taskver:20200410.2-blk40+inst}	Doug	26	20200410.2-blk40+inst	debugnvZPE	472	542.224999982864	1	D	37	p11	1	F	1	500	debugnvZPE_26_Doug	464	D	1	0	10	D	1
{name:Doug,age:26,taskver:20200410.2-blk40+inst}	Doug	26	20200410.2-blk40+inst	debugnvZPE	473	532.030000002123	1	F	39	p11	1	D	1	500	debugnvZPE_26_Doug	466	D	1	0	10	D	1
{name:Doug,age:26,taskver:20200410.2-blk40+inst}	Doug	26	20200410.2-blk40+inst	debugnvZPE	474	718.720000004396	1	D	37	p11	1	F	1	500	debugnvZPE_26_Doug	468	D	1	0	10	D	1
{name:Doug,age:26,taskver:20200410.2-blk40+inst}	Doug	26	20200410.2-blk40+inst	debugnvZPE	475	2054.0050000418	1	F	39	p11	1	R	1	500	debugnvZPE_26_Doug	470	R	2	1	10	D	0
{name:Doug,age:26,taskver:20200410.2-blk40+inst}	Doug	26	20200410.2-blk40+inst	debugnvZPE	476	576.114999945275	1	D	37	p11	1	F	1	500	debugnvZPE_26_Doug	472	D	1	0	10	D	1
{name:Doug,age:26,taskver:20200410.2-blk40+inst}	Doug	26	20200410.2-blk40+inst	debugnvZPE	477	1079.08500009216	1	R	37	p11	1	F	1	500	debugnvZPE_26_Doug	474	R	2	1	10	D	0
{name:Doug,age:26,taskver:20200410.2-blk40+inst}	Doug	26	20200410.2-blk40+inst	debugnvZPE	478	1146.20499999728	1	D	37	p11	1	F	1	500	debugnvZPE_26_Doug	476	D	1	0	10	D	1
{name:Doug,age:26,taskver:20200410.2-blk40+inst}	Doug	26	20200410.2-blk40+inst	debugnvZPE	479	591.159999952652	1	F	39	p11	1	D	1	500	debugnvZPE_26_Doug	478	D	1	0	10	D	1
{name:Doug,age:26,taskver:20200410.2-blk40+inst}	Doug	26	20200410.2-blk40+inst	debugnvZPE	480	1153.40000006836	1	R	39	p11	1	D	1	500	debugnvZPE_26_Doug	480	D	2	0	10	D	1
{name:Emily,age:31,taskver:20200410.2-blk40+inst}	Emily	31	20200410.2-blk40+inst	debugnnPQ8	1	6962	0.2	F	39	p28	0.8	D	0.8	500	debugnnPQ8_31_Emily	2	D	1	0	1	D	1
{name:Emily,age:31,taskver:20200410.2-blk40+inst}	Emily	31	20200410.2-blk40+inst	debugnnPQ8	2	2370	0.2	F	39	p28	0.8	D	0.8	0	debugnnPQ8_31_Emily	4	D	1	0	1	D	1
{name:Emily,age:31,taskver:20200410.2-blk40+inst}	Emily	31	20200410.2-blk40+inst	debugnnPQ8	3	1809	0.2	F	39	p28	0.8	D	0.8	500	debugnnPQ8_31_Emily	6	D	1	0	1	D	1
{name:Emily,age:31,taskver:20200410.2-blk40+inst}	Emily	31	20200410.2-blk40+inst	debugnnPQ8	4	1586	0.8	D	37	p28	0.2	F	0.8	500	debugnnPQ8_31_Emily	8	D	1	0	1	D	1
{name:Emily,age:31,taskver:20200410.2-blk40+inst}	Emily	31	20200410.2-blk40+inst	debugnnPQ8	5	1472	0.2	F	39	p28	0.8	D	0.8	500	debugnnPQ8_31_Emily	10	D	1	0	1	D	1
{name:Emily,age:31,taskver:20200410.2-blk40+inst}	Emily	31	20200410.2-blk40+inst	debugnnPQ8	6	1173	0.8	D	37	p28	0.2	F	0.8	0	debugnnPQ8_31_Emily	12	D	1	0	1	D	1
{name:Emily,age:31,taskver:20200410.2-blk40+inst}	Emily	31	20200410.2-blk40+inst	debugnnPQ8	7	6714	0.2	F	39	p28	0.8	D	0.8	500	debugnnPQ8_31_Emily	14	D	1	0	1	D	1
{name:Emily,age:31,taskver:20200410.2-blk40+inst}	Emily	31	20200410.2-blk40+inst	debugnnPQ8	8	2000	0.2	F	39	p28	0.8	D	0.8	500	debugnnPQ8_31_Emily	16	D	1	0	1	D	1
{name:Emily,age:31,taskver:20200410.2-blk40+inst}	Emily	31	20200410.2-blk40+inst	debugnnPQ8	9	1323	0.8	D	39	p28	0.2	F	0.2	0	debugnnPQ8_31_Emily	18	F	1	0	1	D	0
{name:Emily,age:31,taskver:20200410.2-blk40+inst}	Emily	31	20200410.2-blk40+inst	debugnnPQ8	10	834	0.8	D	37	p28	0.2	F	0.8	500	debugnnPQ8_31_Emily	20	D	1	0	1	D	1
{name:Emily,age:31,taskver:20200410.2-blk40+inst}	Emily	31	20200410.2-blk40+inst	debugnnPQ8	11	617	0.8	D	37	p28	0.2	F	0.8	500	debugnnPQ8_31_Emily	22	D	1	0	1	D	1
{name:Emily,age:31,taskver:20200410.2-blk40+inst}	Emily	31	20200410.2-blk40+inst	debugnnPQ8	12	659	0.8	D	37	p28	0.2	F	0.8	500	debugnnPQ8_31_Emily	24	D	1	0	1	D	1
{name:Emily,age:31,taskver:20200410.2-blk40+inst}	Emily	31	20200410.2-blk40+inst	debugnnPQ8	13	850	0.8	D	37	p28	0.2	F	0.8	500	debugnnPQ8_31_Emily	26	D	1	0	1	D	1
{name:Emily,age:31,taskver:20200410.2-blk40+inst}	Emily	31	20200410.2-blk40+inst	debugnnPQ8	14	578	0.8	D	37	p28	0.2	F	0.8	500	debugnnPQ8_31_Emily	28	D	1	0	1	D	1
{name:Emily,age:31,taskver:20200410.2-blk40+inst}	Emily	31	20200410.2-blk40+inst	debugnnPQ8	15	506	0.8	D	37	p28	0.2	F	0.8	500	debugnnPQ8_31_Emily	30	D	1	0	1	D	1
{name:Emily,age:31,taskver:20200410.2-blk40+inst}	Emily	31	20200410.2-blk40+inst	debugnnPQ8	16	4994	0.8	D	39	p28	1	R	1	500	debugnnPQ8_31_Emily	32	R	2	1	1	D	0
{name:Emily,age:31,taskver:20200410.2-blk40+inst}	Emily	31	20200410.2-blk40+inst	debugnnPQ8	17	1702	0.2	F	39	p28	0.8	D	0.8	500	debugnnPQ8_31_Emily	34	D	1	0	1	D	1
{name:Emily,age:31,taskver:20200410.2-blk40+inst}	Emily	31	20200410.2-blk40+inst	debugnnPQ8	18	614	0.2	F	39	p28	0.8	D	0.8	500	debugnnPQ8_31_Emily	36	D	1	0	1	D	1
{name:Emily,age:31,taskver:20200410.2-blk40+inst}	Emily	31	20200410.2-blk40+inst	debugnnPQ8	19	446	0.2	F	39	p28	0.8	D	0.8	500	debugnnPQ8_31_Emily	38	D	1	0	1	D	1
{name:Emily,age:31,taskver:20200410.2-blk40+inst}	Emily	31	20200410.2-blk40+inst	debugnnPQ8	20	1018	0.8	D	37	p28	0.2	F	0.8	500	debugnnPQ8_31_Emily	40	D	1	0	1	D	1
{name:Emily,age:31,taskver:20200410.2-blk40+inst}	Emily	31	20200410.2-blk40+inst	debugnnPQ8	21	753	0.8	D	37	p28	0.2	F	0.8	500	debugnnPQ8_31_Emily	42	D	1	0	1	D	1
{name:Emily,age:31,taskver:20200410.2-blk40+inst}	Emily	31	20200410.2-blk40+inst	debugnnPQ8	22	2125	1	R	37	p28	0.2	F	1	500	debugnnPQ8_31_Emily	44	R	2	1	1	D	0
{name:Emily,age:31,taskver:20200410.2-blk40+inst}	Emily	31	20200410.2-blk40+inst	debugnnPQ8	23	1601	0.8	D	37	p28	0.2	F	0.8	500	debugnnPQ8_31_Emily	46	D	1	0	1	D	1
{name:Emily,age:31,taskver:20200410.2-blk40+inst}	Emily	31	20200410.2-blk40+inst	debugnnPQ8	24	695	0.8	D	37	p28	0.2	F	0.8	500	debugnnPQ8_31_Emily	48	D	1	0	1	D	1
{name:Emily,age:31,taskver:20200410.2-blk40+inst}	Emily	31	20200410.2-blk40+inst	debugnnPQ8	25	956	0.2	F	39	p28	1	R	1	500	debugnnPQ8_31_Emily	50	R	2	1	1	D	0
{name:Emily,age:31,taskver:20200410.2-blk40+inst}	Emily	31	20200410.2-blk40+inst	debugnnPQ8	26	1310	1	R	37	p28	0.8	D	1	500	debugnnPQ8_31_Emily	52	R	2	1	1	D	0
{name:Emily,age:31,taskver:20200410.2-blk40+inst}	Emily	31	20200410.2-blk40+inst	debugnnPQ8	27	1984	0.8	D	37	p28	0.2	F	0.8	500	debugnnPQ8_31_Emily	54	D	1	0	1	D	1
{name:Emily,age:31,taskver:20200410.2-blk40+inst}	Emily	31	20200410.2-blk40+inst	debugnnPQ8	28	702	0.2	F	39	p28	0.8	D	0.8	500	debugnnPQ8_31_Emily	56	D	1	0	1	D	1
{name:Emily,age:31,taskver:20200410.2-blk40+inst}	Emily	31	20200410.2-blk40+inst	debugnnPQ8	29	1187	0.2	F	39	p28	0.8	D	0.8	500	debugnnPQ8_31_Emily	58	D	1	0	1	D	1
{name:Emily,age:31,taskver:20200410.2-blk40+inst}	Emily	31	20200410.2-blk40+inst	debugnnPQ8	30	856	1	R	37	p28	0.2	F	1	500	debugnnPQ8_31_Emily	60	R	2	1	1	D	0
{name:Emily,age:31,taskver:20200410.2-blk40+inst}	Emily	31	20200410.2-blk40+inst	debugnnPQ8	31	1945	0.8	D	39	p28	1	R	1	500	debugnnPQ8_31_Emily	62	R	2	1	1	D	0
{name:Emily,age:31,taskver:20200410.2-blk40+inst}	Emily	31	20200410.2-blk40+inst	debugnnPQ8	32	964	0.2	F	39	p28	0.8	D	0.8	0	debugnnPQ8_31_Emily	64	D	1	0	1	D	1
{name:Emily,age:31,taskver:20200410.2-blk40+inst}	Emily	31	20200410.2-blk40+inst	debugnnPQ8	33	1056	0.2	F	37	p28	0.8	D	0.2	500	debugnnPQ8_31_Emily	66	F	1	0	1	D	0
{name:Emily,age:31,taskver:20200410.2-blk40+inst}	Emily	31	20200410.2-blk40+inst	debugnnPQ8	34	858	0.8	D	39	p28	0.2	F	0.2	0	debugnnPQ8_31_Emily	68	F	1	0	1	D	0
{name:Emily,age:31,taskver:20200410.2-blk40+inst}	Emily	31	20200410.2-blk40+inst	debugnnPQ8	35	869	0.2	F	39	p28	0.8	D	0.8	500	debugnnPQ8_31_Emily	70	D	1	0	1	D	1
{name:Emily,age:31,taskver:20200410.2-blk40+inst}	Emily	31	20200410.2-blk40+inst	debugnnPQ8	36	1345	1	R	37	p28	0.8	D	1	500	debugnnPQ8_31_Emily	72	R	2	1	1	D	0
{name:Emily,age:31,taskver:20200410.2-blk40+inst}	Emily	31	20200410.2-blk40+inst	debugnnPQ8	37	835	0.2	F	39	p28	0.8	D	0.8	500	debugnnPQ8_31_Emily	74	D	1	0	1	D	1
{name:Emily,age:31,taskver:20200410.2-blk40+inst}	Emily	31	20200410.2-blk40+inst	debugnnPQ8	38	1059	0.2	F	39	p28	1	R	1	500	debugnnPQ8_31_Emily	76	R	2	1	1	D	0
{name:Emily,age:31,taskver:20200410.2-blk40+inst}	Emily	31	20200410.2-blk40+inst	debugnnPQ8	39	919	0.8	D	37	p28	0.2	F	0.8	500	debugnnPQ8_31_Emily	78	D	1	0	1	D	1
{name:Emily,age:31,taskver:20200410.2-blk40+inst}	Emily	31	20200410.2-blk40+inst	debugnnPQ8	40	3497	0.2	F	39	p28	0.8	D	0.8	500	debugnnPQ8_31_Emily	80	D	1	0	1	D	1
{name:Emily,age:31,taskver:20200410.2-blk40+inst}	Emily	31	20200410.2-blk40+inst	debugnnPQ8	41	1006	0.8	F	39	p82	0.2	D	0.2	0	debugnnPQ8_31_Emily	82	D	1	0	2	D	1
{name:Emily,age:31,taskver:20200410.2-blk40+inst}	Emily	31	20200410.2-blk40+inst	debugnnPQ8	42	955	0.8	F	39	p82	1	R	1	500	debugnnPQ8_31_Emily	84	R	2	1	2	D	0
{name:Emily,age:31,taskver:20200410.2-blk40+inst}	Emily	31	20200410.2-blk40+inst	debugnnPQ8	43	907	0.2	D	37	p82	0.8	F	0.2	0	debugnnPQ8_31_Emily	86	D	1	0	2	D	1
{name:Emily,age:31,taskver:20200410.2-blk40+inst}	Emily	31	20200410.2-blk40+inst	debugnnPQ8	44	1054	0.8	F	39	p82	0.2	D	0.2	0	debugnnPQ8_31_Emily	88	D	1	0	2	D	1
{name:Emily,age:31,taskver:20200410.2-blk40+inst}	Emily	31	20200410.2-blk40+inst	debugnnPQ8	45	9259	1	R	37	p82	0.2	D	1	500	debugnnPQ8_31_Emily	90	R	2	1	2	D	0
{name:Emily,age:31,taskver:20200410.2-blk40+inst}	Emily	31	20200410.2-blk40+inst	debugnnPQ8	46	938	0.2	D	37	p82	0.8	F	0.2	0	debugnnPQ8_31_Emily	92	D	1	0	2	D	1
{name:Emily,age:31,taskver:20200410.2-blk40+inst}	Emily	31	20200410.2-blk40+inst	debugnnPQ8	47	742	0.8	F	39	p82	0.2	D	0.2	500	debugnnPQ8_31_Emily	94	D	1	0	2	D	1
{name:Emily,age:31,taskver:20200410.2-blk40+inst}	Emily	31	20200410.2-blk40+inst	debugnnPQ8	48	731	0.2	D	37	p82	0.8	F	0.2	0	debugnnPQ8_31_Emily	96	D	1	0	2	D	1
{name:Emily,age:31,taskver:20200410.2-blk40+inst}	Emily	31	20200410.2-blk40+inst	debugnnPQ8	49	1020	0.8	F	37	p82	0.2	D	0.8	0	debugnnPQ8_31_Emily	98	F	1	0	2	D	0
{name:Emily,age:31,taskver:20200410.2-blk40+inst}	Emily	31	20200410.2-blk40+inst	debugnnPQ8	50	674	0.8	F	39	p82	0.2	D	0.2	0	debugnnPQ8_31_Emily	100	D	1	0	2	D	1
{name:Emily,age:31,taskver:20200410.2-blk40+inst}	Emily	31	20200410.2-blk40+inst	debugnnPQ8	51	650	0.2	D	37	p82	0.8	F	0.2	0	debugnnPQ8_31_Emily	102	D	1	0	2	D	1
{name:Emily,age:31,taskver:20200410.2-blk40+inst}	Emily	31	20200410.2-blk40+inst	debugnnPQ8	52	618	0.2	D	37	p82	0.8	F	0.2	0	debugnnPQ8_31_Emily	104	D	1	0	2	D	1
{name:Emily,age:31,taskver:20200410.2-blk40+inst}	Emily	31	20200410.2-blk40+inst	debugnnPQ8	53	777	0.8	F	39	p82	0.2	D	0.2	0	debugnnPQ8_31_Emily	106	D	1	0	2	D	1
{name:Emily,age:31,taskver:20200410.2-blk40+inst}	Emily	31	20200410.2-blk40+inst	debugnnPQ8	54	891	0.8	F	39	p82	1	R	1	500	debugnnPQ8_31_Emily	108	R	2	1	2	D	0
{name:Emily,age:31,taskver:20200410.2-blk40+inst}	Emily	31	20200410.2-blk40+inst	debugnnPQ8	55	814	0.2	D	37	p82	0.8	F	0.2	0	debugnnPQ8_31_Emily	110	D	1	0	2	D	1
{name:Emily,age:31,taskver:20200410.2-blk40+inst}	Emily	31	20200410.2-blk40+inst	debugnnPQ8	56	1025	0.8	F	37	p82	0.2	D	0.8	0	debugnnPQ8_31_Emily	112	F	1	0	2	D	0
{name:Emily,age:31,taskver:20200410.2-blk40+inst}	Emily	31	20200410.2-blk40+inst	debugnnPQ8	57	1492	0.2	D	39	p82	0.8	F	0.8	500	debugnnPQ8_31_Emily	114	F	1	0	2	D	0
{name:Emily,age:31,taskver:20200410.2-blk40+inst}	Emily	31	20200410.2-blk40+inst	debugnnPQ8	58	1326	0.8	F	39	p82	0.2	D	0.2	500	debugnnPQ8_31_Emily	116	D	1	0	2	D	1
{name:Emily,age:31,taskver:20200410.2-blk40+inst}	Emily	31	20200410.2-blk40+inst	debugnnPQ8	59	682	0.8	F	39	p82	0.2	D	0.2	0	debugnnPQ8_31_Emily	118	D	1	0	2	D	1
{name:Emily,age:31,taskver:20200410.2-blk40+inst}	Emily	31	20200410.2-blk40+inst	debugnnPQ8	60	973	0.2	D	39	p82	1	R	1	500	debugnnPQ8_31_Emily	120	R	2	1	2	D	0
{name:Emily,age:31,taskver:20200410.2-blk40+inst}	Emily	31	20200410.2-blk40+inst	debugnnPQ8	61	1149	0.2	D	39	p82	0.8	F	0.8	500	debugnnPQ8_31_Emily	122	F	1	0	2	D	0
{name:Emily,age:31,taskver:20200410.2-blk40+inst}	Emily	31	20200410.2-blk40+inst	debugnnPQ8	62	678	1	R	39	p82	0.8	F	0.8	500	debugnnPQ8_31_Emily	124	F	2	0	2	D	0
{name:Emily,age:31,taskver:20200410.2-blk40+inst}	Emily	31	20200410.2-blk40+inst	debugnnPQ8	63	1944	1	R	37	p82	0.2	D	1	500	debugnnPQ8_31_Emily	126	R	2	1	2	D	0
{name:Emily,age:31,taskver:20200410.2-blk40+inst}	Emily	31	20200410.2-blk40+inst	debugnnPQ8	64	24025	0.2	D	37	p82	1	R	0.2	0	debugnnPQ8_31_Emily	128	D	2	0	2	D	1
{name:Emily,age:31,taskver:20200410.2-blk40+inst}	Emily	31	20200410.2-blk40+inst	debugnnPQ8	65	2319	0.8	F	39	p82	0.2	D	0.2	0	debugnnPQ8_31_Emily	130	D	1	0	2	D	1
{name:Emily,age:31,taskver:20200410.2-blk40+inst}	Emily	31	20200410.2-blk40+inst	debugnnPQ8	66	1032	0.2	D	39	p82	0.8	F	0.8	500	debugnnPQ8_31_Emily	132	F	1	0	2	D	0
{name:Emily,age:31,taskver:20200410.2-blk40+inst}	Emily	31	20200410.2-blk40+inst	debugnnPQ8	67	2844	1	R	37	p82	0.8	F	1	500	debugnnPQ8_31_Emily	134	R	2	1	2	D	0
{name:Emily,age:31,taskver:20200410.2-blk40+inst}	Emily	31	20200410.2-blk40+inst	debugnnPQ8	68	1968	0.8	F	39	p82	0.2	D	0.2	0	debugnnPQ8_31_Emily	136	D	1	0	2	D	1
{name:Emily,age:31,taskver:20200410.2-blk40+inst}	Emily	31	20200410.2-blk40+inst	debugnnPQ8	69	1065	0.8	F	37	p82	0.2	D	0.8	500	debugnnPQ8_31_Emily	138	F	1	0	2	D	0
{name:Emily,age:31,taskver:20200410.2-blk40+inst}	Emily	31	20200410.2-blk40+inst	debugnnPQ8	70	505	0.8	F	37	p82	0.2	D	0.8	500	debugnnPQ8_31_Emily	140	F	1	0	2	D	0
{name:Emily,age:31,taskver:20200410.2-blk40+inst}	Emily	31	20200410.2-blk40+inst	debugnnPQ8	71	1662	0.2	D	39	p82	0.8	F	0.8	500	debugnnPQ8_31_Emily	142	F	1	0	2	D	0
{name:Emily,age:31,taskver:20200410.2-blk40+inst}	Emily	31	20200410.2-blk40+inst	debugnnPQ8	72	672	0.2	D	39	p82	0.8	F	0.8	0	debugnnPQ8_31_Emily	144	F	1	0	2	D	0
{name:Emily,age:31,taskver:20200410.2-blk40+inst}	Emily	31	20200410.2-blk40+inst	debugnnPQ8	73	658	0.2	D	37	p82	0.8	F	0.2	0	debugnnPQ8_31_Emily	146	D	1	0	2	D	1
{name:Emily,age:31,taskver:20200410.2-blk40+inst}	Emily	31	20200410.2-blk40+inst	debugnnPQ8	74	911	0.8	F	37	p82	0.2	D	0.8	500	debugnnPQ8_31_Emily	148	F	1	0	2	D	0
{name:Emily,age:31,taskver:20200410.2-blk40+inst}	Emily	31	20200410.2-blk40+inst	debugnnPQ8	75	702	0.2	D	39	p82	0.8	F	0.8	500	debugnnPQ8_31_Emily	150	F	1	0	2	D	0
{name:Emily,age:31,taskver:20200410.2-blk40+inst}	Emily	31	20200410.2-blk40+inst	debugnnPQ8	76	669	0.2	D	39	p82	0.8	F	0.8	500	debugnnPQ8_31_Emily	152	F	1	0	2	D	0
{name:Emily,age:31,taskver:20200410.2-blk40+inst}	Emily	31	20200410.2-blk40+inst	debugnnPQ8	77	2612	0.8	F	37	p82	0.2	D	0.8	500	debugnnPQ8_31_Emily	154	F	1	0	2	D	0
{name:Emily,age:31,taskver:20200410.2-blk40+inst}	Emily	31	20200410.2-blk40+inst	debugnnPQ8	78	875	0.8	F	37	p82	0.2	D	0.8	500	debugnnPQ8_31_Emily	156	F	1	0	2	D	0
{name:Emily,age:31,taskver:20200410.2-blk40+inst}	Emily	31	20200410.2-blk40+inst	debugnnPQ8	79	705	0.2	D	39	p82	0.8	F	0.8	500	debugnnPQ8_31_Emily	158	F	1	0	2	D	0
{name:Emily,age:31,taskver:20200410.2-blk40+inst}	Emily	31	20200410.2-blk40+inst	debugnnPQ8	80	780	0.2	D	39	p82	0.8	F	0.8	500	debugnnPQ8_31_Emily	160	F	1	0	2	D	0
{name:Emily,age:31,taskver:20200410.2-blk40+inst}	Emily	31	20200410.2-blk40+inst	debugnnPQ8	81	1074	1	R	37	p28	0.2	F	1	500	debugnnPQ8_31_Emily	162	R	2	1	3	D	0
{name:Emily,age:31,taskver:20200410.2-blk40+inst}	Emily	31	20200410.2-blk40+inst	debugnnPQ8	82	1128	0.8	D	39	p28	0.2	F	0.2	0	debugnnPQ8_31_Emily	164	F	1	0	3	D	0
{name:Emily,age:31,taskver:20200410.2-blk40+inst}	Emily	31	20200410.2-blk40+inst	debugnnPQ8	83	2198	0.8	D	37	p28	0.2	F	0.8	500	debugnnPQ8_31_Emily	166	D	1	0	3	D	1
{name:Emily,age:31,taskver:20200410.2-blk40+inst}	Emily	31	20200410.2-blk40+inst	debugnnPQ8	84	752	0.2	F	39	p28	0.8	D	0.8	0	debugnnPQ8_31_Emily	168	D	1	0	3	D	1
{name:Emily,age:31,taskver:20200410.2-blk40+inst}	Emily	31	20200410.2-blk40+inst	debugnnPQ8	85	960	0.8	D	39	p28	1	R	1	500	debugnnPQ8_31_Emily	170	R	2	1	3	D	0
{name:Emily,age:31,taskver:20200410.2-blk40+inst}	Emily	31	20200410.2-blk40+inst	debugnnPQ8	86	5565	0.2	F	39	p28	0.8	D	0.8	500	debugnnPQ8_31_Emily	172	D	1	0	3	D	1
{name:Emily,age:31,taskver:20200410.2-blk40+inst}	Emily	31	20200410.2-blk40+inst	debugnnPQ8	87	2705	1	R	37	p28	0.8	D	1	500	debugnnPQ8_31_Emily	174	R	2	1	3	D	0
{name:Emily,age:31,taskver:20200410.2-blk40+inst}	Emily	31	20200410.2-blk40+inst	debugnnPQ8	88	795	0.2	F	39	p28	0.8	D	0.8	500	debugnnPQ8_31_Emily	176	D	1	0	3	D	1
{name:Emily,age:31,taskver:20200410.2-blk40+inst}	Emily	31	20200410.2-blk40+inst	debugnnPQ8	89	1093	0.8	D	37	p28	0.2	F	0.8	0	debugnnPQ8_31_Emily	178	D	1	0	3	D	1
{name:Emily,age:31,taskver:20200410.2-blk40+inst}	Emily	31	20200410.2-blk40+inst	debugnnPQ8	90	881	0.2	F	37	p28	1	R	0.2	0	debugnnPQ8_31_Emily	180	F	2	0	3	D	0
{name:Emily,age:31,taskver:20200410.2-blk40+inst}	Emily	31	20200410.2-blk40+inst	debugnnPQ8	91	921	0.8	D	39	p28	0.2	F	0.2	0	debugnnPQ8_31_Emily	182	F	1	0	3	D	0
{name:Emily,age:31,taskver:20200410.2-blk40+inst}	Emily	31	20200410.2-blk40+inst	debugnnPQ8	92	550	0.8	D	37	p28	0.2	F	0.8	500	debugnnPQ8_31_Emily	184	D	1	0	3	D	1
{name:Emily,age:31,taskver:20200410.2-blk40+inst}	Emily	31	20200410.2-blk40+inst	debugnnPQ8	93	540	0.8	D	37	p28	0.2	F	0.8	500	debugnnPQ8_31_Emily	186	D	1	0	3	D	1
{name:Emily,age:31,taskver:20200410.2-blk40+inst}	Emily	31	20200410.2-blk40+inst	debugnnPQ8	94	453	0.8	D	37	p28	0.2	F	0.8	500	debugnnPQ8_31_Emily	188	D	1	0	3	D	1
{name:Emily,age:31,taskver:20200410.2-blk40+inst}	Emily	31	20200410.2-blk40+inst	debugnnPQ8	95	1277	0.2	F	39	p28	0.8	D	0.8	500	debugnnPQ8_31_Emily	190	D	1	0	3	D	1
{name:Emily,age:31,taskver:20200410.2-blk40+inst}	Emily	31	20200410.2-blk40+inst	debugnnPQ8	96	1559	0.2	F	39	p28	0.8	D	0.8	500	debugnnPQ8_31_Emily	192	D	1	0	3	D	1
{name:Emily,age:31,taskver:20200410.2-blk40+inst}	Emily	31	20200410.2-blk40+inst	debugnnPQ8	97	878	1	R	37	p28	0.8	D	1	500	debugnnPQ8_31_Emily	194	R	2	1	3	D	0
{name:Emily,age:31,taskver:20200410.2-blk40+inst}	Emily	31	20200410.2-blk40+inst	debugnnPQ8	98	967	0.8	D	37	p28	0.2	F	0.8	500	debugnnPQ8_31_Emily	196	D	1	0	3	D	1
{name:Emily,age:31,taskver:20200410.2-blk40+inst}	Emily	31	20200410.2-blk40+inst	debugnnPQ8	99	899	0.8	D	39	p28	1	R	1	500	debugnnPQ8_31_Emily	198	R	2	1	3	D	0
{name:Emily,age:31,taskver:20200410.2-blk40+inst}	Emily	31	20200410.2-blk40+inst	debugnnPQ8	100	924	0.8	D	37	p28	0.2	F	0.8	500	debugnnPQ8_31_Emily	200	D	1	0	3	D	1
{name:Emily,age:31,taskver:20200410.2-blk40+inst}	Emily	31	20200410.2-blk40+inst	debugnnPQ8	101	558	0.2	F	39	p28	0.8	D	0.8	500	debugnnPQ8_31_Emily	202	D	1	0	3	D	1
{name:Emily,age:31,taskver:20200410.2-blk40+inst}	Emily	31	20200410.2-blk40+inst	debugnnPQ8	102	668	0.8	D	37	p28	0.2	F	0.8	500	debugnnPQ8_31_Emily	204	D	1	0	3	D	1
{name:Emily,age:31,taskver:20200410.2-blk40+inst}	Emily	31	20200410.2-blk40+inst	debugnnPQ8	103	515	0.2	F	39	p28	0.8	D	0.8	500	debugnnPQ8_31_Emily	206	D	1	0	3	D	1
{name:Emily,age:31,taskver:20200410.2-blk40+inst}	Emily	31	20200410.2-blk40+inst	debugnnPQ8	104	963	0.2	F	39	p28	0.8	D	0.8	500	debugnnPQ8_31_Emily	208	D	1	0	3	D	1
{name:Emily,age:31,taskver:20200410.2-blk40+inst}	Emily	31	20200410.2-blk40+inst	debugnnPQ8	105	1067	0.2	F	39	p28	0.8	D	0.8	500	debugnnPQ8_31_Emily	210	D	1	0	3	D	1
{name:Emily,age:31,taskver:20200410.2-blk40+inst}	Emily	31	20200410.2-blk40+inst	debugnnPQ8	106	791	0.2	F	39	p28	1	R	1	500	debugnnPQ8_31_Emily	212	R	2	1	3	D	0
{name:Emily,age:31,taskver:20200410.2-blk40+inst}	Emily	31	20200410.2-blk40+inst	debugnnPQ8	107	522	0.2	F	39	p28	0.8	D	0.8	500	debugnnPQ8_31_Emily	214	D	1	0	3	D	1
{name:Emily,age:31,taskver:20200410.2-blk40+inst}	Emily	31	20200410.2-blk40+inst	debugnnPQ8	108	742	0.8	D	37	p28	0.2	F	0.8	500	debugnnPQ8_31_Emily	216	D	1	0	3	D	1
{name:Emily,age:31,taskver:20200410.2-blk40+inst}	Emily	31	20200410.2-blk40+inst	debugnnPQ8	109	798	1	R	37	p28	0.2	F	1	500	debugnnPQ8_31_Emily	218	R	2	1	3	D	0
{name:Emily,age:31,taskver:20200410.2-blk40+inst}	Emily	31	20200410.2-blk40+inst	debugnnPQ8	110	706	0.2	F	39	p28	0.8	D	0.8	500	debugnnPQ8_31_Emily	220	D	1	0	3	D	1
{name:Emily,age:31,taskver:20200410.2-blk40+inst}	Emily	31	20200410.2-blk40+inst	debugnnPQ8	111	2200	0.8	D	37	p28	0.2	F	0.8	500	debugnnPQ8_31_Emily	222	D	1	0	3	D	1
{name:Emily,age:31,taskver:20200410.2-blk40+inst}	Emily	31	20200410.2-blk40+inst	debugnnPQ8	112	523	0.8	D	37	p28	0.2	F	0.8	500	debugnnPQ8_31_Emily	224	D	1	0	3	D	1
{name:Emily,age:31,taskver:20200410.2-blk40+inst}	Emily	31	20200410.2-blk40+inst	debugnnPQ8	113	471	0.2	F	39	p28	0.8	D	0.8	0	debugnnPQ8_31_Emily	226	D	1	0	3	D	1
